History written: Thu Aug 07 19:41:40 2014
produced by Frandsens
##### PDFgui fit
stype=N  neutron scattering
qmax=35.00
qdamp=0.0200962
qbroad=0.0290611
dscale=0.968154
fitrmin=0
fitrmax=20
# metadata
temperature=15.0
##### start data
#L r(A) G(r) d_r d_Gr Gdiff
0.01 -0.305833 0.0 3.67616 3.67616
0.02 -0.269398 0.0 6.74797 6.74797
0.03 -0.20362 0.0 9.30018 9.30018
0.04 -0.116984 0.0 11.1771 11.1771
0.05 -0.0207266 0.0 12.3129 12.3129
0.06 0.0725051 0.0 12.7431 12.7431
0.07 0.150173 0.0 12.6055 12.6055
0.08 0.201384 0.0 12.1284 12.1284
0.09 0.218247 0.0 11.6095 11.6095
0.1 0.196889 0.0 11.385 11.385
0.11 0.137991 0.0 11.7962 11.7962
0.12 0.0467838 0.0 13.1517 13.1517
0.13 -0.0675107 0.0 15.6951 15.6951
0.14 -0.192734 0.0 19.5764 19.5764
0.15 -0.315221 0.0 24.8348 24.8348
0.16 -0.421427 0.0 31.3902 31.3902
0.17 -0.499581 0.0 39.049 39.049
0.18 -0.541135 0.0 47.5192 47.5192
0.19 -0.54185 0.0 56.4367 56.4367
0.2 -0.502385 0.0 65.3979 65.3979
0.21 -0.428283 0.0 73.9962 73.9962
0.22 -0.32938 0.0 81.8586 81.8586
0.23 -0.218675 0.0 88.678 88.678
0.24 -0.110801 0.0 94.2391 94.2391
0.25 -0.0202748 0.0 98.4342 98.4342
0.26 0.0402719 0.0 101.268 101.268
0.27 0.0616523 0.0 102.851 102.851
0.28 0.0392964 0.0 103.386 103.386
0.29 -0.0261212 0.0 103.136 103.136
0.3 -0.128681 0.0 102.403 102.403
0.31 -0.257853 0.0 101.487 101.487
0.32 -0.399705 0.0 100.66 100.66
0.33 -0.538543 0.0 100.138 100.138
0.34 -0.658784 0.0 100.058 100.058
0.35 -0.746861 0.0 100.476 100.476
0.36 -0.792896 0.0 101.356 101.356
0.37 -0.791969 0.0 102.588 102.588
0.38 -0.74479 0.0 104.003 104.003
0.39 -0.657709 0.0 105.395 105.395
0.4 -0.542033 0.0 106.55 106.55
0.41 -0.412738 0.0 107.276 107.276
0.42 -0.286702 0.0 107.42 107.42
0.43 -0.180689 0.0 106.895 106.895
0.44 -0.109304 0.0 105.685 105.685
0.45 -0.0831845 0.0 103.854 103.854
0.46 -0.107635 0.0 101.53 101.53
0.47 -0.181896 0.0 98.8967 98.8967
0.48 -0.299129 0.0 96.1749 96.1749
0.49 -0.447148 0.0 93.5915 93.5915
0.5 -0.60981 0.0 91.3574 91.3574
0.51 -0.768909 0.0 89.6429 89.6429
0.52 -0.906361 0.0 88.5584 88.5584
0.53 -1.0064 0.0 88.1417 88.1417
0.54 -1.05754 0.0 88.3536 88.3536
0.55 -1.05406 0.0 89.0815 89.0815
0.56 -0.996775 0.0 90.1508 90.1508
0.57 -0.89308 0.0 91.3441 91.3441
0.58 -0.756154 0.0 92.4242 92.4242
0.59 -0.603459 0.0 93.1589 93.1589
0.6 -0.454693 0.0 93.3458 93.3458
0.61 -0.329433 0.0 92.8338 92.8338
0.62 -0.244745 0.0 91.5388 91.5388
0.63 -0.213064 0.0 89.4525 89.4525
0.64 -0.240591 0.0 86.6427 86.6427
0.65 -0.326426 0.0 83.2472 83.2472
0.66 -0.462544 0.0 79.4588 79.4588
0.67 -0.63464 0.0 75.5058 75.5058
0.68 -0.823754 0.0 71.6293 71.6293
0.69 -1.00849 0.0 68.0589 68.0589
0.7 -1.1676 0.0 64.9908 64.9908
0.71 -1.28252 0.0 62.5694 62.5694
0.72 -1.33975 0.0 60.8744 60.8744
0.73 -1.33256 0.0 59.9146 59.9146
0.74 -1.26194 0.0 59.6296 59.6296
0.75 -1.13665 0.0 59.8985 59.8985
0.76 -0.97227 0.0 60.5531 60.5531
0.77 -0.789478 0.0 61.3967 61.3967
0.78 -0.611597 0.0 62.2248 62.2248
0.79 -0.461817 0.0 62.8457 62.8457
0.8 -0.360365 0.0 63.099 63.099
0.81 -0.321974 0.0 62.8701 62.8701
0.82 -0.353981 0.0 62.0999 62.0999
0.83 -0.455275 0.0 60.7883 60.7883
0.84 -0.616267 0.0 58.9909 58.9909
0.85 -0.819879 0.0 56.8113 56.8113
0.86 -1.04347 0.0 54.3879 54.3879
0.87 -1.2615 0.0 51.8783 51.8783
0.88 -1.44856 0.0 49.4422 49.4422
0.89 -1.58248 0.0 47.2247 47.2247
0.9 -1.64713 0.0 45.3422 45.3422
0.91 -1.63448 0.0 43.872 43.872
0.92 -1.54578 0.0 42.8458 42.8458
0.93 -1.3916 0.0 42.2485 42.2485
0.94 -1.19073 0.0 42.0225 42.0225
0.95 -0.968109 0.0 42.0751 42.0751
0.96 -0.751853 0.0 42.2898 42.2898
0.97 -0.569947 0.0 42.5394 42.5394
0.98 -0.446795 0.0 42.7001 42.7001
0.99 -0.40017 0.0 42.6635 42.6635
1 -0.438891 0.0 42.3478 42.3478
1.01 -0.561538 0.0 41.7053 41.7053
1.02 -0.756392 0.0 40.7261 40.7261
1.03 -1.00263 0.0 39.438 39.438
1.04 -1.27266 0.0 37.9029 37.9029
1.05 -1.53531 0.0 36.2095 36.2095
1.06 -1.7596 0.0 34.4652 34.4652
1.07 -1.91849 0.0 32.7839 32.7839
1.08 -1.99229 0.0 31.2768 31.2768
1.09 -1.97127 0.0 30.0413 30.0413
1.1 -1.85704 0.0 29.1531 29.1531
1.11 -1.66271 0.0 28.6607 28.6607
1.12 -1.41149 0.0 28.5811 28.5811
1.13 -1.13416 0.0 28.9001 28.9001
1.14 -0.865464 0.0 29.5743 29.5743
1.15 -0.639972 0.0 30.5359 30.5359
1.16 -0.487847 0.0 31.6989 31.6989
1.17 -0.431033 0.0 32.9671 32.9671
1.18 -0.480362 0.0 34.2413 34.2413
1.19 -0.633932 0.0 35.4275 35.4275
1.2 -0.877003 0.0 36.4438 36.4438
1.21 -1.18347 0.0 37.2255 37.2255
1.22 -1.51873 0.0 37.7294 37.7294
1.23 -1.84373 0.0 37.9356 37.9356
1.24 -2.11959 0.0 37.8479 37.8479
1.25 -2.3124 0.0 37.492 37.492
1.26 -2.3975 0.0 36.9127 36.9127
1.27 -2.36275 0.0 36.1696 36.1696
1.28 -2.21041 0.0 35.3318 35.3318
1.29 -1.95726 0.0 34.473 34.473
1.3 -1.63292 0.0 33.6647 33.6647
1.31 -1.27666 0.0 32.9722 32.9722
1.32 -0.932813 0.0 32.4488 32.4488
1.33 -0.645521 0.0 32.1326 32.1326
1.34 -0.453282 0.0 32.0436 32.0436
1.35 -0.384069 0.0 32.1826 32.1826
1.36 -0.451572 0.0 32.5311 32.5311
1.37 -0.653069 0.0 33.0531 33.0531
1.38 -0.969249 0.0 33.698 33.698
1.39 -1.36606 0.0 34.4045 34.4045
1.4 -1.79843 0.0 35.1054 35.1054
1.41 -2.21544 0.0 35.7337 35.7337
1.42 -2.56641 0.0 36.2275 36.2275
1.43 -2.80711 0.0 36.5354 36.5354
1.44 -2.90547 0.0 36.621 36.621
1.45 -2.84588 0.0 36.466 36.466
1.46 -2.63173 0.0 36.072 36.072
1.47 -2.28559 0.0 35.4605 35.4605
1.48 -1.84718 0.0 34.6706 34.6706
1.49 -1.36899 0.0 33.7559 33.7559
1.5 -0.910342 0.0 32.7795 32.7795
1.51 -0.530291 0.0 31.8085 31.8085
1.52 -0.28033 0.0 30.9071 30.9071
1.53 -0.197756 0.0 30.1315 30.1315
1.54 -0.300526 0.0 29.5238 29.5238
1.55 -0.584301 0.0 29.1092 29.1092
1.56 -1.02211 0.0 28.8934 28.8934
1.57 -1.5668 0.0 28.863 28.863
1.58 -2.15605 0.0 28.9878 28.9878
1.59 -2.71949 0.0 29.2246 29.2246
1.6 -3.18706 0.0 29.5228 29.5228
1.61 -3.49772 0.0 29.8307 29.8307
1.62 -3.60741 0.0 30.1028 30.1028
1.63 -3.49521 0.0 30.3042 30.3042
1.64 -3.16699 0.0 30.4165 30.4165
1.65 -2.65587 0.0 30.4398 30.4398
1.66 -2.01929 0.0 30.393 30.393
1.67 -1.33306 0.0 30.3123 30.3123
1.68 -0.682706 0.0 30.246 30.246
1.69 -0.153323 0.0 30.2491 30.2491
1.7 0.181079 0.0 30.3758 30.3758
1.71 0.267365 0.0 30.672 30.672
1.72 0.0809596 0.0 31.1683 31.1683
1.73 -0.3696 0.0 31.8748 31.8748
1.74 -1.042 0.0 32.7777 32.7777
1.75 -1.86366 0.0 33.8395 33.8395
1.76 -2.73918 0.0 35.0009 35.0009
1.77 -3.56107 0.0 36.187 36.187
1.78 -4.22261 0.0 37.3145 37.3145
1.79 -4.63135 0.0 38.3012 38.3012
1.8 -4.72166 0.0 39.0759 39.0759
1.81 -4.46468 0.0 39.5874 39.5874
1.82 -3.8743 0.0 39.8119 39.8119
1.83 -3.00813 0.0 39.7578 39.7578
1.84 -1.96305 0.0 39.467 39.467
1.85 -0.865509 0.0 39.0113 39.0113
1.86 0.142682 0.0 38.4873 38.4873
1.87 0.921458 0.0 38.0061 38.0061
1.88 1.35073 0.0 37.6811 37.6811
1.89 1.34746 0.0 37.615 37.615
1.9 0.879313 0.0 37.8873 37.8873
1.91 -0.0270989 0.0 38.5425 38.5425
1.92 -1.2851 0.0 39.5825 39.5825
1.93 -2.75475 0.0 40.9627 40.9627
1.94 -4.25768 0.0 42.5922 42.5922
1.95 -5.59912 0.0 44.3403 44.3403
1.96 -6.59534 0.0 46.0466 46.0466
1.97 -7.10395 0.0 47.5347 47.5347
1.98 -7.05402 0.0 48.6294 48.6294
1.99 -6.47248 0.0 49.1732 49.1732
2 -5.50353 0.0 49.043 49.043
2.01 -4.41819 0.0 48.1642 48.1642
2.02 -3.61156 0.0 46.5195 46.5195
2.03 -3.58689 0.0 44.1531 44.1531
2.04 -4.92634 0.0 41.1701 41.1701
2.05 -8.24989 0.0 37.7281 37.7281
2.06 -14.1651 0.0 34.0248 34.0248
2.07 -23.2111 0.0 30.2816 30.2816
2.08 -35.8027 0.0 26.7243 26.7243
2.09 -52.1769 0.0 23.5629 23.5629
2.1 -72.3508 0.0 20.9739 20.9739
2.11 -96.0912 0.0 19.084 19.084
2.12 -122.903 0.0 17.9599 17.9599
2.13 -152.036 0.0 17.6049 17.6049
2.14 -182.513 0.0 17.9551 17.9551
2.15 -213.178 0.0 18.8938 18.8938
2.16 -242.756 0.0 20.2575 20.2575
2.17 -269.936 0.0 21.8556 21.8556
2.18 -293.444 0.0 23.49 23.49
2.19 -312.136 0.0 24.9694 24.9694
2.2 -325.071 0.0 26.1304 26.1304
2.21 -331.576 0.0 26.8524 26.8524
2.22 -331.296 0.0 27.0633 27.0633
2.23 -324.22 0.0 26.7451 26.7451
2.24 -310.683 0.0 25.9365 25.9365
2.25 -291.348 0.0 24.7181 24.7181
2.26 -267.157 0.0 23.2093 23.2093
2.27 -239.273 0.0 21.5501 21.5501
2.28 -208.999 0.0 19.8847 19.8847
2.29 -177.692 0.0 18.3485 18.3485
2.3 -146.681 0.0 17.057 17.057
2.31 -117.177 0.0 16.0898 16.0898
2.32 -90.2075 0.0 15.4891 15.4891
2.33 -66.5619 0.0 15.2593 15.2593
2.34 -46.7556 0.0 15.367 15.367
2.35 -31.0192 0.0 15.7502 15.7502
2.36 -19.3082 0.0 16.3276 16.3276
2.37 -11.333 0.0 17.0094 17.0094
2.38 -6.60569 0.0 17.709 17.709
2.39 -4.49884 0.0 18.3522 18.3522
2.4 -4.30999 0.0 18.8848 18.8848
2.41 -5.32701 0.0 19.2761 19.2761
2.42 -6.88808 0.0 19.5198 19.5198
2.43 -8.4315 0.0 19.6297 19.6297
2.44 -9.53175 0.0 19.6345 19.6345
2.45 -9.91953 0.0 19.5697 19.5697
2.46 -9.48512 0.0 19.4681 19.4681
2.47 -8.26596 0.0 19.3525 19.3525
2.48 -6.42107 0.0 19.229 19.229
2.49 -4.19553 0.0 19.0833 19.0833
2.5 -1.87954 0.0 18.8808 18.8808
2.51 0.23345 0.0 18.5693 18.5693
2.52 1.88524 0.0 18.0856 18.0856
2.53 2.88403 0.0 17.3639 17.3639
2.54 3.12554 0.0 16.3461 16.3461
2.55 2.60234 0.0 14.9915 14.9915
2.56 1.40122 0.0 13.2853 13.2853
2.57 -0.310691 0.0 11.2445 11.2445
2.58 -2.30863 0.0 8.92005 8.92005
2.59 -4.33898 0.0 6.39562 6.39562
2.6 -6.15051 0.0 3.78132 3.78132
2.61 -7.52438 0.0 1.20441 1.20441
2.62 -8.29959 0.0 -1.20283 -1.20283
2.63 -8.39102 0.0 -3.31668 -3.31668
2.64 -7.79818 0.0 -5.03522 -5.03522
2.65 -6.60389 0.0 -6.29021 -6.29021
2.66 -4.96319 0.0 -7.05581 -7.05581
2.67 -3.084 0.0 -7.3526 -7.3526
2.68 -1.20163 0.0 -7.24726 -7.24726
2.69 0.449528 0.0 -6.84732 -6.84732
2.7 1.66413 0.0 -6.29091 -6.29091
2.71 2.29047 0.0 -5.73346 -5.73346
2.72 2.2487 0.0 -5.33197 -5.33197
2.73 1.5406 0.0 -5.22896 -5.22896
2.74 0.249751 0.0 -5.53765 -5.53765
2.75 -1.46798 0.0 -6.33013 -6.33013
2.76 -3.40259 0.0 -7.62971 -7.62971
2.77 -5.31469 0.0 -9.40851 -9.40851
2.78 -6.96408 0.0 -11.5904 -11.5904
2.79 -8.13883 0.0 -14.0592 -14.0592
2.8 -8.6814 0.0 -16.6708 -16.6708
2.81 -8.50862 0.0 -19.2689 -19.2689
2.82 -7.62291 0.0 -21.701 -21.701
2.83 -6.11291 0.0 -23.8346 -23.8346
2.84 -4.14298 0.0 -25.5704 -25.5704
2.85 -1.93207 0.0 -26.8521 -26.8521
2.86 0.276407 0.0 -27.6707 -27.6707
2.87 2.2507 0.0 -28.0641 -28.0641
2.88 3.8095 0.0 -28.1104 -28.1104
2.89 4.85913 0.0 -27.9178 -27.9178
2.9 5.42505 0.0 -27.6105 -27.6105
2.91 5.67393 0.0 -27.3127 -27.3127
2.92 5.923 0.0 -27.1343 -27.1343
2.93 6.63475 0.0 -27.1564 -27.1564
2.94 8.39617 0.0 -27.4229 -27.4229
2.95 11.883 0.0 -27.9349 -27.9349
2.96 17.8115 0.0 -28.6519 -28.6519
2.97 26.8803 0.0 -29.4976 -29.4976
2.98 39.7075 0.0 -30.3703 -30.3703
2.99 56.7679 0.0 -31.158 -31.158
3 78.3357 0.0 -31.7537 -31.7537
3.01 104.437 0.0 -32.0713 -32.0713
3.02 134.819 0.0 -32.06 -32.06
3.03 168.936 0.0 -31.7137 -31.7137
3.04 205.956 0.0 -31.0753 -31.0753
3.05 244.794 0.0 -30.2378 -30.2378
3.06 284.153 0.0 -29.3364 -29.3364
3.07 322.599 0.0 -28.5346 -28.5346
3.08 358.63 0.0 -28.0081 -28.0081
3.09 390.772 0.0 -27.9292 -27.9292
3.1 417.661 0.0 -28.4427 -28.4427
3.11 438.126 0.0 -29.6499 -29.6499
3.12 451.265 0.0 -31.5946 -31.5946
3.13 456.497 0.0 -34.2567 -34.2567
3.14 453.601 0.0 -37.5455 -37.5455
3.15 442.726 0.0 -41.3071 -41.3071
3.16 424.384 0.0 -45.334 -45.334
3.17 399.412 0.0 -49.3853 -49.3853
3.18 368.922 0.0 -53.201 -53.201
3.19 334.227 0.0 -56.5315 -56.5315
3.2 296.765 0.0 -59.1551 -59.1551
3.21 258.007 0.0 -60.9004 -60.9004
3.22 219.378 0.0 -61.6581 -61.6581
3.23 182.174 0.0 -61.3963 -61.3963
3.24 147.501 0.0 -60.1579 -60.1579
3.25 116.223 0.0 -58.0572 -58.0572
3.26 88.935 0.0 -55.2709 -55.2709
3.27 65.9502 0.0 -52.02 -52.02
3.28 47.3144 0.0 -48.5506 -48.5506
3.29 32.832 0.0 -45.1121 -45.1121
3.3 22.1097 0.0 -41.9363 -41.9363
3.31 14.609 0.0 -39.2188 -39.2188
3.32 9.70433 0.0 -37.1048 -37.1048
3.33 6.74196 0.0 -35.6804 -35.6804
3.34 5.09323 0.0 -34.9692 -34.9692
3.35 4.1999 0.0 -34.9365 -34.9365
3.36 3.60768 0.0 -35.4964 -35.4964
3.37 2.98623 0.0 -36.5254 -36.5254
3.38 2.13532 0.0 -37.8774 -37.8774
3.39 0.977843 0.0 -39.3997 -39.3997
3.4 -0.458304 0.0 -40.948 -40.948
3.41 -2.0665 0.0 -42.3994 -42.3994
3.42 -3.69246 0.0 -43.6615 -43.6615
3.43 -5.16643 0.0 -44.6777 -44.6777
3.44 -6.33278 0.0 -45.4268 -45.4268
3.45 -7.07428 0.0 -45.9203 -45.9203
3.46 -7.32865 0.0 -46.1949 -46.1949
3.47 -7.09613 0.0 -46.3034 -46.3034
3.48 -6.43807 0.0 -46.3044 -46.3044
3.49 -5.46718 0.0 -46.2537 -46.2537
3.5 -4.33146 0.0 -46.1949 -46.1949
3.51 -3.19405 0.0 -46.1552 -46.1552
3.52 -2.21188 0.0 -46.1421 -46.1421
3.53 -1.51614 0.0 -46.1453 -46.1453
3.54 -1.19696 0.0 -46.1392 -46.1392
3.55 -1.29446 0.0 -46.0898 -46.0898
3.56 -1.79737 0.0 -45.9608 -45.9608
3.57 -2.64952 0.0 -45.7211 -45.7211
3.58 -3.7634 0.0 -45.3513 -45.3513
3.59 -5.03939 0.0 -44.8477 -44.8477
3.6 -6.38811 0.0 -44.2243 -44.2243
3.61 -7.75331 0.0 -43.5122 -43.5122
3.62 -9.13213 0.0 -42.7561 -42.7561
3.63 -10.5901 0.0 -42.0085 -42.0085
3.64 -12.2684 0.0 -41.3235 -41.3235
3.65 -14.3821 0.0 -40.7483 -40.7483
3.66 -17.2085 0.0 -40.3179 -40.3179
3.67 -21.0662 0.0 -40.0487 -40.0487
3.68 -26.2867 0.0 -39.9364 -39.9364
3.69 -33.1799 0.0 -39.9564 -39.9564
3.7 -41.9981 0.0 -40.0659 -40.0659
3.71 -52.9015 0.0 -40.2098 -40.2098
3.72 -65.9276 0.0 -40.3284 -40.3284
3.73 -80.9698 0.0 -40.3662 -40.3662
3.74 -97.7662 0.0 -40.2798 -40.2798
3.75 -115.901 0.0 -40.0439 -40.0439
3.76 -134.82 0.0 -39.6584 -39.6584
3.77 -153.855 0.0 -39.1505 -39.1505
3.78 -172.264 0.0 -38.5731 -38.5731
3.79 -189.277 0.0 -37.9953 -37.9953
3.8 -204.142 0.0 -37.5051 -37.5051
3.81 -216.179 0.0 -37.1886 -37.1886
3.82 -224.825 0.0 -37.1261 -37.1261
3.83 -229.67 0.0 -37.3805 -37.3805
3.84 -230.486 0.0 -37.9846 -37.9846
3.85 -227.246 0.0 -38.9399 -38.9399
3.86 -220.117 0.0 -40.2104 -40.2104
3.87 -209.45 0.0 -41.7237 -41.7237
3.88 -195.758 0.0 -43.3794 -43.3794
3.89 -179.671 0.0 -45.0542 -45.0542
3.9 -161.901 0.0 -46.6174 -46.6174
3.91 -143.189 0.0 -47.94 -47.94
3.92 -124.263 0.0 -48.9141 -48.9141
3.93 -105.791 0.0 -49.4577 -49.4577
3.94 -88.3497 0.0 -49.5303 -49.5303
3.95 -72.3944 0.0 -49.1346 -49.1346
3.96 -58.2466 0.0 -48.3174 -48.3174
3.97 -46.0885 0.0 -47.1709 -47.1709
3.98 -35.9701 0.0 -45.8166 -45.8166
3.99 -27.824 0.0 -44.3996 -44.3996
4 -21.4884 0.0 -43.0719 -43.0719
4.01 -16.7336 0.0 -41.9774 -41.9774
4.02 -13.2901 0.0 -41.238 -41.238
4.03 -10.8762 0.0 -40.9405 -40.9405
4.04 -9.2215 0.0 -41.1284 -41.1284
4.05 -8.08596 0.0 -41.7978 -41.7978
4.06 -7.27283 0.0 -42.8978 -42.8978
4.07 -6.63515 0.0 -44.3355 -44.3355
4.08 -6.07623 0.0 -45.9874 -45.9874
4.09 -5.54514 0.0 -47.7104 -47.7104
4.1 -5.02825 0.0 -49.3579 -49.3579
4.11 -4.53851 0.0 -50.7944 -50.7944
4.12 -4.10385 0.0 -51.9091 -51.9091
4.13 -3.75599 0.0 -52.6263 -52.6263
4.14 -3.52092 0.0 -52.9127 -52.9127
4.15 -3.41148 0.0 -52.7791 -52.7791
4.16 -3.42244 0.0 -52.2781 -52.2781
4.17 -3.52801 0.0 -51.4967 -51.4967
4.18 -3.68131 0.0 -50.546 -50.546
4.19 -3.81548 0.0 -49.5478 -49.5478
4.2 -3.84557 0.0 -48.621 -48.621
4.21 -3.67097 0.0 -47.8684 -47.8684
4.22 -3.17791 0.0 -47.3653 -47.3653
4.23 -2.24206 0.0 -47.1517 -47.1517
4.24 -0.731259 0.0 -47.2293 -47.2293
4.25 1.49117 0.0 -47.5613 -47.5613
4.26 4.56215 0.0 -48.0781 -48.0781
4.27 8.61305 0.0 -48.6857 -48.6857
4.28 13.7621 0.0 -49.2777 -49.2777
4.29 20.1049 0.0 -49.747 -49.747
4.3 27.7034 0.0 -49.9994 -49.9994
4.31 36.5734 0.0 -49.9635 -49.9635
4.32 46.673 0.0 -49.5998 -49.5998
4.33 57.8912 0.0 -48.9046 -48.9046
4.34 70.04 0.0 -47.9109 -47.9109
4.35 82.8513 0.0 -46.6844 -46.6844
4.36 95.9782 0.0 -45.3162 -45.3162
4.37 109.004 0.0 -43.9125 -43.9125
4.38 121.46 0.0 -42.5834 -42.5834
4.39 132.843 0.0 -41.43 -41.43
4.4 142.649 0.0 -40.5341 -40.5341
4.41 150.403 0.0 -39.9487 -39.9487
4.42 155.691 0.0 -39.6929 -39.6929
4.43 158.195 0.0 -39.7514 -39.7514
4.44 157.721 0.0 -40.0738 -40.0738
4.45 154.215 0.0 -40.582 -40.582
4.46 147.78 0.0 -41.1782 -41.1782
4.47 138.673 0.0 -41.7586 -41.7586
4.48 127.292 0.0 -42.2182 -42.2182
4.49 114.154 0.0 -42.4678 -42.4678
4.5 99.8591 0.0 -42.4398 -42.4398
4.51 85.0527 0.0 -42.0956 -42.0956
4.52 70.3764 0.0 -41.4285 -41.4285
4.53 56.4251 0.0 -40.4636 -40.4636
4.54 43.7046 0.0 -39.2538 -39.2538
4.55 32.5983 0.0 -37.8733 -37.8733
4.56 23.3451 0.0 -36.4092 -36.4092
4.57 16.0295 0.0 -34.9513 -34.9513
4.58 10.5867 0.0 -33.5832 -33.5832
4.59 6.8204 0.0 -32.3731 -32.3731
4.6 4.43272 0.0 -31.3684 -31.3684
4.61 3.06195 0.0 -30.591 -30.591
4.62 2.32487 0.0 -30.0375 -30.0375
4.63 1.85859 0.0 -29.6805 -29.6805
4.64 1.35735 0.0 -29.4748 -29.4748
4.65 0.600058 0.0 -29.3626 -29.3626
4.66 -0.534577 0.0 -29.2824 -29.2824
4.67 -2.06732 0.0 -29.1767 -29.1767
4.68 -3.93241 0.0 -28.9986 -28.9986
4.69 -6.00494 0.0 -28.7175 -28.7175
4.7 -8.13866 0.0 -28.3217 -28.3217
4.71 -10.21 0.0 -27.8199 -27.8199
4.72 -12.1628 0.0 -27.238 -27.238
4.73 -14.0491 0.0 -26.6155 -26.6155
4.74 -16.0588 0.0 -25.9992 -25.9992
4.75 -18.5359 0.0 -25.4368 -25.4368
4.76 -21.9759 0.0 -24.9694 -24.9694
4.77 -27.0042 0.0 -24.6263 -24.6263
4.78 -34.3357 0.0 -24.4195 -24.4195
4.79 -44.7172 0.0 -24.3424 -24.3424
4.8 -58.8587 0.0 -24.3693 -24.3693
4.81 -77.358 0.0 -24.458 -24.458
4.82 -100.626 0.0 -24.5531 -24.5531
4.83 -128.82 0.0 -24.5947 -24.5947
4.84 -161.794 0.0 -24.5247 -24.5247
4.85 -199.066 0.0 -24.2898 -24.2898
4.86 -239.814 0.0 -23.854 -23.854
4.87 -282.897 0.0 -23.1996 -23.1996
4.88 -326.907 0.0 -22.3292 -22.3292
4.89 -370.236 0.0 -21.2666 -21.2666
4.9 -411.177 0.0 -20.0572 -20.0572
4.91 -448.019 0.0 -18.758 -18.758
4.92 -479.164 0.0 -17.4374 -17.4374
4.93 -503.225 0.0 -16.1627 -16.1627
4.94 -519.124 0.0 -14.9952 -14.9952
4.95 -526.155 0.0 -13.9858 -13.9858
4.96 -524.037 0.0 -13.1628 -13.1628
4.97 -512.924 0.0 -12.5356 -12.5356
4.98 -493.393 0.0 -12.0895 -12.0895
4.99 -466.399 0.0 -11.7858 -11.7858
5 -433.205 0.0 -11.5707 -11.5707
5.01 -395.297 0.0 -11.3737 -11.3737
5.02 -354.282 0.0 -11.1216 -11.1216
5.03 -311.787 0.0 -10.7417 -10.7417
5.04 -269.36 0.0 -10.1695 -10.1695
5.05 -228.386 0.0 -9.3576 -9.3576
5.06 -190.018 0.0 -8.27859 -8.27859
5.07 -155.134 0.0 -6.92835 -6.92835
5.08 -124.312 0.0 -5.32691 -5.32691
5.09 -97.8392 0.0 -3.51679 -3.51679
5.1 -75.7298 0.0 -1.55881 -1.55881
5.11 -57.7685 0.0 0.471767 0.471767
5.12 -43.5614 0.0 2.49512 2.49512
5.13 -32.5932 0.0 4.43149 4.43149
5.14 -24.2824 0.0 6.20861 6.20861
5.15 -18.0311 0.0 7.76796 7.76796
5.16 -13.2631 0.0 9.06854 9.06854
5.17 -9.45026 0.0 10.09 10.09
5.18 -6.12318 0.0 10.8331 10.8331
5.19 -2.87063 0.0 11.3182 11.3182
5.2 0.672148 0.0 11.5825 11.5825
5.21 4.84132 0.0 11.675 11.675
5.22 9.96429 0.0 11.6522 11.6522
5.23 16.3769 0.0 11.572 11.572
5.24 24.4339 0.0 11.4885 11.4885
5.25 34.5096 0.0 11.4478 11.4478
5.26 46.9867 0.0 11.4845 11.4845
5.27 62.2338 0.0 11.6201 11.6201
5.28 80.5726 0.0 11.8625 11.8625
5.29 102.238 0.0 12.2071 12.2071
5.3 127.335 0.0 12.6389 12.6389
5.31 155.8 0.0 13.1362 13.1362
5.32 187.365 0.0 13.672 13.672
5.33 221.54 0.0 14.2239 14.2239
5.34 257.607 0.0 14.7675 14.7675
5.35 294.631 0.0 15.2878 15.2878
5.36 331.499 0.0 15.7785 15.7785
5.37 366.966 0.0 16.239 16.239
5.38 399.72 0.0 16.6788 16.6788
5.39 428.462 0.0 17.1141 17.1141
5.4 451.982 0.0 17.5646 17.5646
5.41 469.242 0.0 18.0531 18.0531
5.42 479.441 0.0 18.5993 18.5993
5.43 482.074 0.0 19.2208 19.2208
5.44 476.97 0.0 19.9261 19.9261
5.45 464.302 0.0 20.7188 20.7188
5.46 444.583 0.0 21.5889 21.5889
5.47 418.631 0.0 22.5193 22.5193
5.48 387.517 0.0 23.4834 23.4834
5.49 352.498 0.0 24.4483 24.4483
5.5 314.938 0.0 25.3742 25.3742
5.51 276.224 0.0 26.2209 26.2209
5.52 237.687 0.0 26.9503 26.9503
5.53 200.526 0.0 27.5275 27.5275
5.54 165.752 0.0 27.9255 27.9255
5.55 134.144 0.0 28.1266 28.1266
5.56 106.23 0.0 28.125 28.125
5.57 82.2773 0.0 27.9297 27.9297
5.58 62.3141 0.0 27.5594 27.5594
5.59 46.1585 0.0 27.0469 27.0469
5.6 33.4621 0.0 26.4344 26.4344
5.61 23.7604 0.0 25.7727 25.7727
5.62 16.5257 0.0 25.1174 25.1174
5.63 11.2175 0.0 24.5253 24.5253
5.64 7.32621 0.0 24.0518 24.0518
5.65 4.40752 0.0 23.7463 23.7463
5.66 2.1052 0.0 23.65 23.65
5.67 0.161712 0.0 23.7926 23.7926
5.68 -1.58264 0.0 24.1907 24.1907
5.69 -3.20055 0.0 24.8468 24.8468
5.7 -4.69583 0.0 25.749 25.749
5.71 -6.02606 0.0 26.8723 26.8723
5.72 -7.12648 0.0 28.1799 28.1799
5.73 -7.93231 0.0 29.6264 29.6264
5.74 -8.39711 0.0 31.161 31.161
5.75 -8.50533 0.0 32.7306 32.7306
5.76 -8.27834 0.0 34.2839 34.2839
5.77 -7.77381 0.0 35.7751 35.7751
5.78 -7.07928 0.0 37.1666 37.1666
5.79 -6.30124 0.0 38.4316 38.4316
5.8 -5.5517 0.0 39.556 39.556
5.81 -4.93411 0.0 40.5382 40.5382
5.82 -4.53069 0.0 41.3895 41.3895
5.83 -4.39266 0.0 42.1319 42.1319
5.84 -4.53479 0.0 42.7963 42.7963
5.85 -4.93456 0.0 43.4196 43.4196
5.86 -5.53614 0.0 44.0411 44.0411
5.87 -6.25833 0.0 44.6998 44.6998
5.88 -7.00555 0.0 45.4302 45.4302
5.89 -7.68034 0.0 46.2607 46.2607
5.9 -8.19572 0.0 47.2103 47.2103
5.91 -8.48596 0.0 48.2886 48.2886
5.92 -8.51436 0.0 49.494 49.494
5.93 -8.27719 0.0 50.8153 50.8153
5.94 -7.80315 0.0 52.2323 52.2323
5.95 -7.14856 0.0 53.7179 53.7179
5.96 -6.38869 0.0 55.2396 55.2396
5.97 -5.60625 0.0 56.7632 56.7632
5.98 -4.87828 0.0 58.2541 58.2541
5.99 -4.26286 0.0 59.6801 59.6801
6 -3.78718 0.0 61.0129 61.0129
6.01 -3.43814 0.0 62.2298 62.2298
6.02 -3.15663 0.0 63.3146 63.3146
6.03 -2.8361 0.0 64.2575 64.2575
6.04 -2.3257 0.0 65.0556 65.0556
6.05 -1.43784 0.0 65.7122 65.7122
6.06 0.0404985 0.0 66.2365 66.2365
6.07 2.33342 0.0 66.6424 66.6424
6.08 5.66006 0.0 66.9482 66.9482
6.09 10.2178 0.0 67.1757 67.1757
6.1 16.1665 0.0 67.3493 67.3493
6.11 23.6138 0.0 67.4957 67.4957
6.12 32.6042 0.0 67.6428 67.6428
6.13 43.1105 0.0 67.8185 67.8185
6.14 55.0303 0.0 68.0507 68.0507
6.15 68.1854 0.0 68.3656 68.3656
6.16 82.3262 0.0 68.7858 68.7858
6.17 97.1394 0.0 69.3296 69.3296
6.18 112.259 0.0 70.0094 70.0094
6.19 127.279 0.0 70.8294 70.8294
6.2 141.77 0.0 71.7849 71.7849
6.21 155.298 0.0 72.8621 72.8621
6.22 167.438 0.0 74.0364 74.0364
6.23 177.794 0.0 75.2774 75.2774
6.24 186.016 0.0 76.5437 76.5437
6.25 191.817 0.0 77.7917 77.7917
6.26 194.983 0.0 78.975 78.975
6.27 195.386 0.0 80.0484 80.0484
6.28 192.99 0.0 80.9736 80.9736
6.29 187.859 0.0 81.7216 81.7216
6.3 180.15 0.0 82.2735 82.2735
6.31 170.112 0.0 82.6291 82.6291
6.32 158.072 0.0 82.8004 82.8004
6.33 144.422 0.0 82.8149 82.8149
6.34 129.6 0.0 82.7135 82.7135
6.35 114.065 0.0 82.5472 82.5472
6.36 98.2685 0.0 82.3705 82.3705
6.37 82.6324 0.0 82.2396 82.2396
6.38 67.5176 0.0 82.2004 82.2004
6.39 53.2008 0.0 82.2912 82.2912
6.4 39.8529 0.0 82.5321 82.5321
6.41 27.5236 0.0 82.9244 82.9244
6.42 16.1334 0.0 83.4476 83.4476
6.43 5.47385 0.0 84.0621 84.0621
6.44 -4.78334 0.0 84.7103 84.7103
6.45 -15.0677 0.0 85.3221 85.3221
6.46 -25.883 0.0 85.8205 85.8205
6.47 -37.7729 0.0 86.1294 86.1294
6.48 -51.2811 0.0 86.1804 86.1804
6.49 -66.9084 0.0 85.9201 85.9201
6.5 -85.0697 0.0 85.3162 85.3162
6.51 -106.053 0.0 84.3604 84.3604
6.52 -129.984 0.0 83.0711 83.0711
6.53 -156.802 0.0 81.4919 81.4919
6.54 -186.24 0.0 79.6883 79.6883
6.55 -217.826 0.0 77.7424 77.7424
6.56 -250.889 0.0 75.7445 75.7445
6.57 -284.585 0.0 73.7862 73.7862
6.58 -317.931 0.0 71.9508 71.9508
6.59 -349.852 0.0 70.3073 70.3073
6.6 -379.239 0.0 68.8988 68.8988
6.61 -405.003 0.0 67.7487 67.7487
6.62 -426.14 0.0 66.8478 66.8478
6.63 -441.788 0.0 66.1654 66.1654
6.64 -451.28 0.0 65.6469 65.6469
6.65 -454.181 0.0 65.2249 65.2249
6.66 -450.321 0.0 64.8233 64.8233
6.67 -439.807 0.0 64.3709 64.3709
6.68 -423.017 0.0 63.8046 63.8046
6.69 -400.582 0.0 63.0826 63.0826
6.7 -373.35 0.0 62.1856 62.1856
6.71 -342.336 0.0 61.1198 61.1198
6.72 -308.663 0.0 59.9195 59.9195
6.73 -273.492 0.0 58.6423 58.6423
6.74 -237.959 0.0 57.3602 57.3602
6.75 -203.101 0.0 56.1581 56.1581
6.76 -169.8 0.0 55.1182 55.1182
6.77 -138.733 0.0 54.3149 54.3149
6.78 -110.336 0.0 53.8017 53.8017
6.79 -84.7855 0.0 53.6083 53.6083
6.8 -62.0021 0.0 53.7345 53.7345
6.81 -41.6648 0.0 54.1484 54.1484
6.82 -23.2496 0.0 54.79 54.79
6.83 -6.07948 0.0 55.5753 55.5753
6.84 10.6133 0.0 56.4048 56.4048
6.85 27.6182 0.0 57.1735 57.1735
6.86 45.6751 0.0 57.7819 57.7819
6.87 65.4072 0.0 58.1448 58.1448
6.88 87.2607 0.0 58.2033 58.2033
6.89 111.459 0.0 57.9278 57.9278
6.9 137.973 0.0 57.3244 57.3244
6.91 166.507 0.0 56.4323 56.4323
6.92 196.511 0.0 55.3215 55.3215
6.93 227.21 0.0 54.0844 54.0844
6.94 257.643 0.0 52.8271 52.8271
6.95 286.733 0.0 51.6561 51.6561
6.96 313.352 0.0 50.6664 50.6664
6.97 336.398 0.0 49.9344 49.9344
6.98 354.871 0.0 49.5029 49.5029
6.99 367.943 0.0 49.3791 49.3791
7 375.012 0.0 49.5289 49.5289
7.01 375.747 0.0 49.8818 49.8818
7.02 370.11 0.0 50.3374 50.3374
7.03 358.355 0.0 50.7679 50.7679
7.04 341.015 0.0 51.0378 51.0378
7.05 318.859 0.0 51.0116 51.0116
7.06 292.84 0.0 50.5686 50.5686
7.07 264.027 0.0 49.6177 49.6177
7.08 233.533 0.0 48.1023 48.1023
7.09 202.437 0.0 46.01 46.01
7.1 171.719 0.0 43.3742 43.3742
7.11 142.193 0.0 40.27 40.27
7.12 114.465 0.0 36.8118 36.8118
7.13 88.9025 0.0 33.1385 33.1385
7.14 65.6237 0.0 29.4039 29.4039
7.15 44.5101 0.0 25.7634 25.7634
7.16 25.2341 0.0 22.3573 22.3573
7.17 7.30456 0.0 19.2993 19.2993
7.18 -9.87707 0.0 16.6665 16.6665
7.19 -26.9522 0.0 14.4914 14.4914
7.2 -44.5394 0.0 12.7606 12.7606
7.21 -63.1716 0.0 11.4153 11.4153
7.22 -83.2423 0.0 10.3582 10.3582
7.23 -104.963 0.0 9.46284 9.46284
7.24 -128.339 0.0 8.58659 8.58659
7.25 -153.156 0.0 7.58258 7.58258
7.26 -178.993 0.0 6.31925 6.31925
7.27 -205.248 0.0 4.68655 4.68655
7.28 -231.171 0.0 2.61162 2.61162
7.29 -255.921 0.0 0.0680207 0.0680207
7.3 -278.621 0.0 -2.92634 -2.92634
7.31 -298.414 0.0 -6.30399 -6.30399
7.32 -314.525 0.0 -9.95785 -9.95785
7.33 -326.308 0.0 -13.7436 -13.7436
7.34 -333.289 0.0 -17.4967 -17.4967
7.35 -335.193 0.0 -21.0443 -21.0443
7.36 -331.958 0.0 -24.2184 -24.2184
7.37 -323.737 0.0 -26.8693 -26.8693
7.38 -310.883 0.0 -28.88 -28.88
7.39 -293.924 0.0 -30.1761 -30.1761
7.4 -273.525 0.0 -30.7289 -30.7289
7.41 -250.449 0.0 -30.56 -30.56
7.42 -225.508 0.0 -29.7386 -29.7386
7.43 -199.521 0.0 -28.3784 -28.3784
7.44 -173.265 0.0 -26.6254 -26.6254
7.45 -147.444 0.0 -24.6485 -24.6485
7.46 -122.655 0.0 -22.6271 -22.6271
7.47 -99.3698 0.0 -20.7372 -20.7372
7.48 -77.9221 0.0 -19.1359 -19.1359
7.49 -58.5066 0.0 -17.9554 -17.9554
7.5 -41.1868 0.0 -17.2892 -17.2892
7.51 -25.9096 0.0 -17.1884 -17.1884
7.52 -12.5266 0.0 -17.658 -17.658
7.53 -0.8186 0.0 -18.6588 -18.6588
7.54 9.47724 0.0 -20.1109 -20.1109
7.55 18.6407 0.0 -21.9014 -21.9014
7.56 26.9432 0.0 -23.8941 -23.8941
7.57 34.6267 0.0 -25.9408 -25.9408
7.58 41.8857 0.0 -27.8934 -27.8934
7.59 48.8564 0.0 -29.6163 -29.6163
7.6 55.6096 0.0 -30.9962 -30.9962
7.61 62.1509 0.0 -31.9524 -31.9524
7.62 68.425 0.0 -32.4422 -32.4422
7.63 74.3251 0.0 -32.465 -32.465
7.64 79.7051 0.0 -32.0618 -32.0618
7.65 84.395 0.0 -31.3126 -31.3126
7.66 88.2159 0.0 -30.3294 -30.3294
7.67 90.9959 0.0 -29.2481 -29.2481
7.68 92.5836 0.0 -28.2172 -28.2172
7.69 92.859 0.0 -27.3858 -27.3858
7.7 91.7412 0.0 -26.892 -26.892
7.71 89.1918 0.0 -26.851 -26.851
7.72 85.214 0.0 -27.3457 -27.3457
7.73 79.8482 0.0 -28.4193 -28.4193
7.74 73.1638 0.0 -30.0715 -30.0715
7.75 65.2486 0.0 -32.2574 -32.2574
7.76 56.1967 0.0 -34.8902 -34.8902
7.77 46.097 0.0 -37.8481 -37.8481
7.78 35.0225 0.0 -40.9827 -40.9827
7.79 23.0225 0.0 -44.1308 -44.1308
7.8 10.1184 0.0 -47.1271 -47.1271
7.81 -3.69544 0.0 -49.817 -49.817
7.82 -18.4464 0.0 -52.0684 -52.0684
7.83 -34.1736 0.0 -53.783 -53.783
7.84 -50.9135 0.0 -54.9035 -54.9035
7.85 -68.6831 0.0 -55.4159 -55.4159
7.86 -87.4611 0.0 -55.3539 -55.3539
7.87 -107.171 0.0 -54.7914 -54.7914
7.88 -127.663 0.0 -53.8408 -53.8408
7.89 -148.708 0.0 -52.6348 -52.6348
7.9 -169.987 0.0 -51.3246 -51.3246
7.91 -191.097 0.0 -50.0588 -50.0588
7.92 -211.558 0.0 -48.9746 -48.9746
7.93 -230.833 0.0 -48.1849 -48.1849
7.94 -248.349 0.0 -47.7711 -47.7711
7.95 -263.528 0.0 -47.7731 -47.7731
7.96 -275.818 0.0 -48.1909 -48.1909
7.97 -284.726 0.0 -48.9839 -48.9839
7.98 -289.846 0.0 -50.0757 -50.0757
7.99 -290.886 0.0 -51.3632 -51.3632
8 -287.681 0.0 -52.7257 -52.7257
8.01 -280.207 0.0 -54.039 -54.039
8.02 -268.572 0.0 -55.1868 -55.1868
8.03 -253.009 0.0 -56.0681 -56.0681
8.04 -233.85 0.0 -56.6113 -56.6113
8.05 -211.499 0.0 -56.7761 -56.7761
8.06 -186.399 0.0 -56.5585 -56.5585
8.07 -158.993 0.0 -55.9904 -55.9904
8.08 -129.694 0.0 -55.1313 -55.1313
8.09 -98.8546 0.0 -54.0674 -54.0674
8.1 -66.7482 0.0 -52.8958 -52.8958
8.11 -33.5578 0.0 -51.7197 -51.7197
8.12 0.621223 0.0 -50.6353 -50.6353
8.13 35.7671 0.0 -49.7228 -49.7228
8.14 71.9074 0.0 -49.0392 -49.0392
8.15 109.086 0.0 -48.614 -48.614
8.16 147.326 0.0 -48.447 -48.447
8.17 186.587 0.0 -48.5102 -48.5102
8.18 226.731 0.0 -48.7512 -48.7512
8.19 267.491 0.0 -49.1016 -49.1016
8.2 308.449 0.0 -49.4825 -49.4825
8.21 349.032 0.0 -49.8142 -49.8142
8.22 388.521 0.0 -50.0266 -50.0266
8.23 426.068 0.0 -50.0627 -50.0627
8.24 460.739 0.0 -49.8861 -49.8861
8.25 491.561 0.0 -49.4823 -49.4823
8.26 517.578 0.0 -48.861 -48.861
8.27 537.91 0.0 -48.0493 -48.0493
8.28 551.816 0.0 -47.0944 -47.0944
8.29 558.744 0.0 -46.0503 -46.0503
8.3 558.375 0.0 -44.9746 -44.9746
8.31 550.649 0.0 -43.9212 -43.9212
8.32 535.783 0.0 -42.9371 -42.9371
8.33 514.259 0.0 -42.0529 -42.0529
8.34 486.803 0.0 -41.2844 -41.2844
8.35 454.35 0.0 -40.6316 -40.6316
8.36 417.985 0.0 -40.0793 -40.0793
8.37 378.894 0.0 -39.6027 -39.6027
8.38 338.29 0.0 -39.1685 -39.1685
8.39 297.357 0.0 -38.7457 -38.7457
8.4 257.191 0.0 -38.3047 -38.3047
8.41 218.75 0.0 -37.8263 -37.8263
8.42 182.821 0.0 -37.3014 -37.3014
8.43 149.995 0.0 -36.7362 -36.7362
8.44 120.66 0.0 -36.1448 -36.1448
8.45 95.0079 0.0 -35.5555 -35.5555
8.46 73.0516 0.0 -35.0002 -35.0002
8.47 54.6531 0.0 -34.5129 -34.5129
8.48 39.5559 0.0 -34.1243 -34.1243
8.49 27.4219 0.0 -33.857 -33.857
8.5 17.8664 0.0 -33.7223 -33.7223
8.51 10.4906 0.0 -33.7184 -33.7184
8.52 4.90802 0.0 -33.8296 -33.8296
8.53 0.764426 0.0 -34.0281 -34.0281
8.54 -2.24978 0.0 -34.2772 -34.2772
8.55 -4.39403 0.0 -34.5353 -34.5353
8.56 -5.87794 0.0 -34.7612 -34.7612
8.57 -6.86606 0.0 -34.9184 -34.9184
8.58 -7.48509 0.0 -34.98 -34.98
8.59 -7.8319 0.0 -34.9309 -34.9309
8.6 -7.98077 0.0 -34.7693 -34.7693
8.61 -7.98858 0.0 -34.5063 -34.5063
8.62 -7.89766 0.0 -34.1626 -34.1626
8.63 -7.73587 0.0 -33.7653 -33.7653
8.64 -7.51478 0.0 -33.3423 -33.3423
8.65 -7.2266 0.0 -32.9171 -32.9171
8.66 -6.84128 0.0 -32.5036 -32.5036
8.67 -6.30474 0.0 -32.1027 -32.1027
8.68 -5.53956 0.0 -31.6995 -31.6995
8.69 -4.44876 0.0 -31.2642 -31.2642
8.7 -2.92296 0.0 -30.7539 -30.7539
8.71 -0.850764 0.0 -30.1174 -30.1174
8.72 1.86849 0.0 -29.3018 -29.3018
8.73 5.31076 0.0 -28.2591 -28.2591
8.74 9.51358 0.0 -26.9549 -26.9549
8.75 14.4644 0.0 -25.3743 -25.3743
8.76 20.0923 0.0 -23.5279 -23.5279
8.77 26.2647 0.0 -21.454 -21.454
8.78 32.789 0.0 -19.219 -19.219
8.79 39.4207 0.0 -16.9136 -16.9136
8.8 45.8761 0.0 -14.6472 -14.6472
8.81 51.8494 0.0 -12.5387 -12.5387
8.82 57.032 0.0 -10.7062 -10.7062
8.83 61.1321 0.0 -9.25552 -9.25552
8.84 63.8934 0.0 -8.27033 -8.27033
8.85 65.109 0.0 -7.8028 -7.8028
8.86 64.6305 0.0 -7.86769 -7.86769
8.87 62.3707 0.0 -8.43913 -8.43913
8.88 58.2996 0.0 -9.45262 -9.45262
8.89 52.4336 0.0 -10.8097 -10.8097
8.9 44.8202 0.0 -12.3866 -12.3866
8.91 35.5195 0.0 -14.0461 -14.0461
8.92 24.5844 0.0 -15.6499 -15.6499
8.93 12.0436 0.0 -17.0729 -17.0729
8.94 -2.11187 0.0 -18.2142 -18.2142
8.95 -17.935 0.0 -19.0084 -19.0084
8.96 -35.5215 0.0 -19.4307 -19.4307
8.97 -54.9991 0.0 -19.5002 -19.5002
8.98 -76.509 0.0 -19.2774 -19.2774
8.99 -100.18 0.0 -18.8581 -18.8581
9 -126.097 0.0 -18.3621 -18.3621
9.01 -154.269 0.0 -17.9222 -17.9222
9.02 -184.596 0.0 -17.6699 -17.6699
9.03 -216.844 0.0 -17.7208 -17.7208
9.04 -250.625 0.0 -18.1632 -18.1632
9.05 -285.387 0.0 -19.0466 -19.0466
9.06 -320.424 0.0 -20.3801 -20.3801
9.07 -354.886 0.0 -22.1278 -22.1278
9.08 -387.816 0.0 -24.2125 -24.2125
9.09 -418.189 0.0 -26.5254 -26.5254
9.1 -444.958 0.0 -28.9374 -28.9374
9.11 -467.114 0.0 -31.3066 -31.3066
9.12 -483.74 0.0 -33.5008 -33.5008
9.13 -494.059 0.0 -35.4043 -35.4043
9.14 -497.479 0.0 -36.9299 -36.9299
9.15 -493.629 0.0 -38.0315 -38.0315
9.16 -482.376 0.0 -38.7021 -38.7021
9.17 -463.828 0.0 -38.9773 -38.9773
9.18 -438.327 0.0 -38.928 -38.928
9.19 -406.426 0.0 -38.6562 -38.6562
9.2 -368.851 0.0 -38.2778 -38.2778
9.21 -326.463 0.0 -37.9132 -37.9132
9.22 -280.206 0.0 -37.6741 -37.6741
9.23 -231.064 0.0 -37.653 -37.653
9.24 -180.016 0.0 -37.9084 -37.9084
9.25 -127.996 0.0 -38.465 -38.465
9.26 -75.8695 0.0 -39.3105 -39.3105
9.27 -24.4111 0.0 -40.3927 -40.3927
9.28 25.701 0.0 -41.6316 -41.6316
9.29 73.8835 0.0 -42.9249 -42.9249
9.3 119.638 0.0 -44.1602 -44.1602
9.31 162.535 0.0 -45.2265 -45.2265
9.32 202.198 0.0 -46.0264 -46.0264
9.33 238.283 0.0 -46.4843 -46.4843
9.34 270.466 0.0 -46.5572 -46.5572
9.35 298.434 0.0 -46.2351 -46.2351
9.36 321.882 0.0 -45.5422 -45.5422
9.37 340.52 0.0 -44.5386 -44.5386
9.38 354.081 0.0 -43.3061 -43.3061
9.39 362.345 0.0 -41.9456 -41.9456
9.4 365.153 0.0 -40.5675 -40.5675
9.41 362.433 0.0 -39.2785 -39.2785
9.42 354.223 0.0 -38.1738 -38.1738
9.43 340.679 0.0 -37.3305 -37.3305
9.44 322.09 0.0 -36.8034 -36.8034
9.45 298.881 0.0 -36.6162 -36.6162
9.46 271.599 0.0 -36.7715 -36.7715
9.47 240.898 0.0 -37.2482 -37.2482
9.48 207.519 0.0 -38.004 -38.004
9.49 172.252 0.0 -38.9871 -38.9871
9.5 135.906 0.0 -40.143 -40.143
9.51 99.2719 0.0 -41.414 -41.414
9.52 63.0885 0.0 -42.752 -42.752
9.53 28.0146 0.0 -44.1183 -44.1183
9.54 -5.39335 0.0 -45.4865 -45.4865
9.55 -36.6949 0.0 -46.8425 -46.8425
9.56 -65.5695 0.0 -48.1815 -48.1815
9.57 -91.8114 0.0 -49.5076 -49.5076
9.58 -115.316 0.0 -50.8256 -50.8256
9.59 -136.062 0.0 -52.1427 -52.1427
9.6 -154.084 0.0 -53.4587 -53.4587
9.61 -169.449 0.0 -54.7698 -54.7698
9.62 -182.231 0.0 -56.0632 -56.0632
9.63 -192.488 0.0 -57.3191 -57.3191
9.64 -200.249 0.0 -58.5125 -58.5125
9.65 -205.5 0.0 -59.6158 -59.6158
9.66 -208.189 0.0 -60.6033 -60.6033
9.67 -208.224 0.0 -61.4501 -61.4501
9.68 -205.492 0.0 -62.143 -62.143
9.69 -199.874 0.0 -62.6754 -62.6754
9.7 -191.265 0.0 -63.0509 -63.0509
9.71 -179.601 0.0 -63.2851 -63.2851
9.72 -164.875 0.0 -63.3973 -63.3973
9.73 -147.157 0.0 -63.4135 -63.4135
9.74 -126.61 0.0 -63.3577 -63.3577
9.75 -103.491 0.0 -63.2505 -63.2505
9.76 -78.1559 0.0 -63.1051 -63.1051
9.77 -51.0481 0.0 -62.9229 -62.9229
9.78 -22.6888 0.0 -62.694 -62.694
9.79 6.34375 0.0 -62.3975 -62.3975
9.8 35.4359 0.0 -62.0028 -62.0028
9.81 63.9625 0.0 -61.4736 -61.4736
9.82 91.3109 0.0 -60.7738 -60.7738
9.83 116.903 0.0 -59.8721 -59.8721
9.84 140.212 0.0 -58.7478 -58.7478
9.85 160.781 0.0 -57.3957 -57.3957
9.86 178.225 0.0 -55.8274 -55.8274
9.87 192.243 0.0 -54.0768 -54.0768
9.88 202.608 0.0 -52.1916 -52.1916
9.89 209.167 0.0 -50.2364 -50.2364
9.9 211.835 0.0 -48.2858 -48.2858
9.91 210.577 0.0 -46.4149 -46.4149
9.92 205.406 0.0 -44.691 -44.691
9.93 196.37 0.0 -43.1711 -43.1711
9.94 183.546 0.0 -41.8905 -41.8905
9.95 167.038 0.0 -40.8606 -40.8606
9.96 146.971 0.0 -40.0641 -40.0641
9.97 123.502 0.0 -39.4589 -39.4589
9.98 96.8209 0.0 -38.9778 -38.9778
9.99 67.158 0.0 -38.5376 -38.5376
10 34.7959 0.0 -38.0457 -38.0457
10.01 0.0771695 0.0 -37.41 -37.41
10.02 -36.5882 0.0 -36.5483 -36.5483
10.03 -74.7181 0.0 -35.3979 -35.3979
10.04 -113.757 0.0 -33.9211 -33.9211
10.05 -153.08 0.0 -32.1138 -32.1138
10.06 -192.003 0.0 -30.0023 -30.0023
10.07 -229.793 0.0 -27.6436 -27.6436
10.08 -265.694 0.0 -25.1222 -25.1222
10.09 -298.941 0.0 -22.5406 -22.5406
10.1 -328.795 0.0 -20.0096 -20.0096
10.11 -354.565 0.0 -17.6402 -17.6402
10.12 -375.635 0.0 -15.5299 -15.5299
10.13 -391.495 0.0 -13.7555 -13.7555
10.14 -401.757 0.0 -12.3675 -12.3675
10.15 -406.177 0.0 -11.3811 -11.3811
10.16 -404.666 0.0 -10.7823 -10.7823
10.17 -397.292 0.0 -10.5229 -10.5229
10.18 -384.282 0.0 -10.5282 -10.5282
10.19 -366.007 0.0 -10.7077 -10.7077
10.2 -342.972 0.0 -10.9588 -10.9588
10.21 -315.789 0.0 -11.1779 -11.1779
10.22 -285.153 0.0 -11.2717 -11.2717
10.23 -251.814 0.0 -11.1599 -11.1599
10.24 -216.544 0.0 -10.7855 -10.7855
10.25 -180.112 0.0 -10.1119 -10.1119
10.26 -143.252 0.0 -9.12984 -9.12984
10.27 -106.645 0.0 -7.84823 -7.84823
10.28 -70.8968 0.0 -6.29253 -6.29253
10.29 -36.5296 0.0 -4.50016 -4.50016
10.3 -3.97344 0.0 -2.51235 -2.51235
10.31 26.4334 0.0 -0.368765 -0.368765
10.32 54.4388 0.0 1.89698 1.89698
10.33 79.8681 0.0 4.26072 4.26072
10.34 102.611 0.0 6.70899 6.70899
10.35 122.608 0.0 9.23674 9.23674
10.36 139.837 0.0 11.8477 11.8477
10.37 154.3 0.0 14.5471 14.5471
10.38 166.012 0.0 17.3361 17.3361
10.39 174.997 0.0 20.2129 20.2129
10.4 181.284 0.0 23.1619 23.1619
10.41 184.908 0.0 26.1579 26.1579
10.42 185.916 0.0 29.1605 29.1605
10.43 184.372 0.0 32.1194 32.1194
10.44 180.37 0.0 34.9761 34.9761
10.45 174.041 0.0 37.6727 37.6727
10.46 165.563 0.0 40.1538 40.1538
10.47 155.165 0.0 42.3754 42.3754
10.48 143.129 0.0 44.3118 44.3118
10.49 129.793 0.0 45.9565 45.9565
10.5 115.54 0.0 47.3274 47.3274
10.51 100.785 0.0 48.4623 48.4623
10.52 85.9656 0.0 49.4184 49.4184
10.53 71.5203 0.0 50.2677 50.2677
10.54 57.8685 0.0 51.0845 51.0845
10.55 45.3913 0.0 51.939 51.939
10.56 34.4129 0.0 52.8905 52.8905
10.57 25.1854 0.0 53.9767 53.9767
10.58 17.8782 0.0 55.2097 55.2097
10.59 12.5728 0.0 56.5722 56.5722
10.6 9.26347 0.0 58.0194 58.0194
10.61 7.86467 0.0 59.4815 59.4815
10.62 8.2231 0.0 60.8722 60.8722
10.63 10.1348 0.0 62.0974 62.0974
10.64 13.365 0.0 63.0671 63.0671
10.65 17.6694 0.0 63.7062 63.7062
10.66 22.8144 0.0 63.9649 63.9649
10.67 28.5953 0.0 63.8272 63.8272
10.68 34.8501 0.0 63.3148 63.3148
10.69 41.4678 0.0 62.4882 62.4882
10.7 48.391 0.0 61.443 61.443
10.71 55.6114 0.0 60.3006 60.3006
10.72 63.16 0.0 59.201 59.201
10.73 71.0913 0.0 58.2827 58.2827
10.74 79.4652 0.0 57.6738 57.6738
10.75 88.3255 0.0 57.4755 57.4755
10.76 97.6799 0.0 57.7511 57.7511
10.77 107.481 0.0 58.5168 58.5168
10.78 117.613 0.0 59.7369 59.7369
10.79 127.882 0.0 61.3295 61.3295
10.8 138.012 0.0 63.1658 63.1658
10.81 147.656 0.0 65.089 65.089
10.82 156.401 0.0 66.9218 66.9218
10.83 163.792 0.0 68.4902 68.4902
10.84 169.352 0.0 69.6342 69.6342
10.85 172.612 0.0 70.2308 70.2308
10.86 173.14 0.0 70.202 70.202
10.87 170.567 0.0 69.5265 69.5265
10.88 164.613 0.0 68.2427 68.2427
10.89 155.113 0.0 66.447 66.447
10.9 142.025 0.0 64.2871 64.2871
10.91 125.443 0.0 61.9467 61.9467
10.92 105.598 0.0 59.6327 59.6327
10.93 82.8498 0.0 57.5522 57.5522
10.94 57.674 0.0 55.897 55.897
10.95 30.6454 0.0 54.8249 54.8249
10.96 2.41357 0.0 54.4452 54.4452
10.97 -26.3213 0.0 54.8089 54.8089
10.98 -54.8345 0.0 55.9042 55.9042
10.99 -82.4017 0.0 57.6583 57.6583
11 -108.321 0.0 59.944 59.944
11.01 -131.933 0.0 62.5917 62.5917
11.02 -152.633 0.0 65.4051 65.4051
11.03 -169.886 0.0 68.1781 68.1781
11.04 -183.229 0.0 70.7135 70.7135
11.05 -192.277 0.0 72.8382 72.8382
11.06 -196.72 0.0 74.4171 74.4171
11.07 -196.324 0.0 75.3641 75.3641
11.08 -190.928 0.0 75.6452 75.6452
11.09 -180.442 0.0 75.2783 75.2783
11.1 -164.847 0.0 74.3258 74.3258
11.11 -144.194 0.0 72.8909 72.8909
11.12 -118.611 0.0 71.1008 71.1008
11.13 -88.303 0.0 69.0949 69.0949
11.14 -53.5614 0.0 67.0112 67.0112
11.15 -14.7688 0.0 64.9737 64.9737
11.16 27.5957 0.0 63.0827 63.0827
11.17 72.9524 0.0 61.4086 61.4086
11.18 120.621 0.0 59.9881 59.9881
11.19 169.823 0.0 58.8265 58.8265
11.2 219.694 0.0 57.901 57.901
11.21 269.292 0.0 57.1674 57.1674
11.22 317.62 0.0 56.57 56.57
11.23 363.652 0.0 56.048 56.048
11.24 406.358 0.0 55.5459 55.5459
11.25 444.738 0.0 55.021 55.021
11.26 477.854 0.0 54.4459 54.4459
11.27 504.864 0.0 53.812 53.812
11.28 525.052 0.0 53.1299 53.1299
11.29 537.857 0.0 52.4252 52.4252
11.3 542.893 0.0 51.7332 51.7332
11.31 539.967 0.0 51.0959 51.0959
11.32 529.088 0.0 50.5522 50.5522
11.33 510.465 0.0 50.1352 50.1352
11.34 484.503 0.0 49.8659 49.8659
11.35 451.789 0.0 49.7489 49.7489
11.36 413.07 0.0 49.776 49.776
11.37 369.228 0.0 49.9227 49.9227
11.38 321.253 0.0 50.1542 50.1542
11.39 270.206 0.0 50.4269 50.4269
11.4 217.192 0.0 50.6955 50.6955
11.41 163.325 0.0 50.9156 50.9156
11.42 109.697 0.0 51.0501 51.0501
11.43 57.3498 0.0 51.0702 51.0702
11.44 7.25257 0.0 50.9598 50.9598
11.45 -39.7211 0.0 50.7125 50.7125
11.46 -82.8099 0.0 50.333 50.333
11.47 -121.378 0.0 49.8335 49.8335
11.48 -154.925 0.0 49.2299 49.2299
11.49 -183.091 0.0 48.5408 48.5408
11.5 -205.661 0.0 47.7808 47.7808
11.51 -222.564 0.0 46.9617 46.9617
11.52 -233.87 0.0 46.0871 46.0871
11.53 -239.786 0.0 45.1592 45.1592
11.54 -240.646 0.0 44.1737 44.1737
11.55 -236.898 0.0 43.1263 43.1263
11.56 -229.096 0.0 42.0129 42.0129
11.57 -217.875 0.0 40.8371 40.8371
11.58 -203.938 0.0 39.6087 39.6087
11.59 -188.029 0.0 38.3479 38.3479
11.6 -170.913 0.0 37.0868 37.0868
11.61 -153.348 0.0 35.8658 35.8658
11.62 -136.061 0.0 34.7325 34.7325
11.63 -119.727 0.0 33.7393 33.7393
11.64 -104.942 0.0 32.936 32.936
11.65 -92.2091 0.0 32.3654 32.3654
11.66 -81.9264 0.0 32.0586 32.0586
11.67 -74.377 0.0 32.0306 32.0306
11.68 -69.7295 0.0 32.2772 32.2772
11.69 -68.0432 0.0 32.7753 32.7753
11.7 -69.2792 0.0 33.4833 33.4833
11.71 -73.3168 0.0 34.3456 34.3456
11.72 -79.9735 0.0 35.2974 35.2974
11.73 -89.0274 0.0 36.2719 36.2719
11.74 -100.239 0.0 37.2072 37.2072
11.75 -113.372 0.0 38.0535 38.0535
11.76 -128.21 0.0 38.7789 38.7789
11.77 -144.568 0.0 39.3738 39.3738
11.78 -162.294 0.0 39.8511 39.8511
11.79 -181.272 0.0 40.2468 40.2468
11.8 -201.406 0.0 40.6163 40.6163
11.81 -222.61 0.0 41.0253 41.0253
11.82 -244.782 0.0 41.5443 41.5443
11.83 -267.784 0.0 42.2396 42.2396
11.84 -291.413 0.0 43.1623 43.1623
11.85 -315.387 0.0 44.3442 44.3442
11.86 -339.32 0.0 45.7864 45.7864
11.87 -362.718 0.0 47.4608 47.4608
11.88 -384.973 0.0 49.3092 49.3092
11.89 -405.38 0.0 51.2445 51.2445
11.9 -423.148 0.0 53.1585 53.1585
11.91 -437.442 0.0 54.9345 54.9345
11.92 -447.408 0.0 56.4533 56.4533
11.93 -452.232 0.0 57.6054 57.6054
11.94 -451.179 0.0 58.3043 58.3043
11.95 -443.646 0.0 58.4946 58.4946
11.96 -429.204 0.0 58.1587 58.1587
11.97 -407.64 0.0 57.318 57.318
11.98 -378.983 0.0 56.0357 56.0357
11.99 -343.518 0.0 54.4066 54.4066
12 -301.79 0.0 52.558 52.558
12.01 -254.592 0.0 50.6277 50.6277
12.02 -202.934 0.0 48.7633 48.7633
12.03 -148.01 0.0 47.1011 47.1011
12.04 -91.1424 0.0 45.756 45.756
12.05 -33.7292 0.0 44.8155 44.8155
12.06 22.8171 0.0 44.3283 44.3283
12.07 77.1296 0.0 44.3024 44.3024
12.08 127.943 0.0 44.7075 44.7075
12.09 174.146 0.0 45.4743 45.4743
12.1 214.815 0.0 46.5083 46.5083
12.11 249.249 0.0 47.6966 47.6966
12.12 276.985 0.0 48.9185 48.9185
12.13 297.799 0.0 50.058 50.058
12.14 311.699 0.0 51.0185 51.0185
12.15 318.907 0.0 51.7229 51.7229
12.16 319.835 0.0 52.13 52.13
12.17 315.047 0.0 52.2277 52.2277
12.18 305.228 0.0 52.04 52.04
12.19 291.142 0.0 51.6178 51.6178
12.2 273.6 0.0 51.0309 51.0309
12.21 253.424 0.0 50.3649 50.3649
12.22 231.419 0.0 49.7066 49.7066
12.23 208.351 0.0 49.1334 49.1334
12.24 184.923 0.0 48.7094 48.7094
12.25 161.768 0.0 48.4731 48.4731
12.26 139.438 0.0 48.4363 48.4363
12.27 118.397 0.0 48.5816 48.5816
12.28 99.0255 0.0 48.8635 48.8635
12.29 81.6141 0.0 49.2149 49.2149
12.3 66.3719 0.0 49.5511 49.5511
12.31 53.4273 0.0 49.7817 49.7817
12.32 42.8331 0.0 49.813 49.813
12.33 34.5706 0.0 49.5632 49.5632
12.34 28.5551 0.0 48.9655 48.9655
12.35 24.6416 0.0 47.9758 47.9758
12.36 22.6314 0.0 46.5754 46.5754
12.37 22.2796 0.0 44.7728 44.7728
12.38 23.3038 0.0 42.6023 42.6023
12.39 25.3941 0.0 40.1206 40.1206
12.4 28.2231 0.0 37.4023 37.4023
12.41 31.4576 0.0 34.5333 34.5333
12.42 34.7693 0.0 31.6051 31.6051
12.43 37.8457 0.0 28.7074 28.7074
12.44 40.3999 0.0 25.9227 25.9227
12.45 42.178 0.0 23.3219 23.3219
12.46 42.9656 0.0 20.9602 20.9602
12.47 42.5911 0.0 18.8753 18.8753
12.48 40.927 0.0 17.0874 17.0874
12.49 37.8892 0.0 15.5986 15.5986
12.5 33.4335 0.0 14.396 14.396
12.51 27.5519 0.0 13.4527 13.4527
12.52 20.2673 0.0 12.7314 12.7314
12.53 11.6279 0.0 12.1877 12.1877
12.54 1.70286 0.0 11.7718 11.7718
12.55 -9.42148 0.0 11.4324 11.4324
12.56 -21.6443 0.0 11.1186 11.1186
12.57 -34.8509 0.0 10.7821 10.7821
12.58 -48.9122 0.0 10.3797 10.3797
12.59 -63.6826 0.0 9.87463 9.87463
12.6 -78.9976 0.0 9.23842 9.23842
12.61 -94.6702 0.0 8.452 8.452
12.62 -110.488 0.0 7.50732 7.50732
12.63 -126.213 0.0 6.4069 6.4069
12.64 -141.577 0.0 5.16725 5.16725
12.65 -156.288 0.0 3.81346 3.81346
12.66 -170.031 0.0 2.38082 2.38082
12.67 -182.471 0.0 0.915442 0.915442
12.68 -193.268 0.0 -0.536005 -0.536005
12.69 -202.078 0.0 -1.92373 -1.92373
12.7 -208.571 0.0 -3.20084 -3.20084
12.71 -212.439 0.0 -4.33242 -4.33242
12.72 -213.408 0.0 -5.29323 -5.29323
12.73 -211.253 0.0 -6.07654 -6.07654
12.74 -205.809 0.0 -6.69472 -6.69472
12.75 -196.978 0.0 -7.18292 -7.18292
12.76 -184.741 0.0 -7.59433 -7.59433
12.77 -169.163 0.0 -8.00235 -8.00235
12.78 -150.399 0.0 -8.49193 -8.49193
12.79 -128.697 0.0 -9.15625 -9.15625
12.8 -104.394 0.0 -10.087 -10.087
12.81 -77.9174 0.0 -11.3683 -11.3683
12.82 -49.7764 0.0 -13.0646 -13.0646
12.83 -20.5537 0.0 -15.2165 -15.2165
12.84 9.10605 0.0 -17.833 -17.833
12.85 38.5116 0.0 -20.8887 -20.8887
12.86 66.9429 0.0 -24.3226 -24.3226
12.87 93.6714 0.0 -28.0401 -28.0401
12.88 117.983 0.0 -31.9194 -31.9194
12.89 139.201 0.0 -35.8184 -35.8184
12.9 156.713 0.0 -39.5844 -39.5844
12.91 169.992 0.0 -43.0692 -43.0692
12.92 178.62 0.0 -46.1369 -46.1369
12.93 182.307 0.0 -48.6771 -48.6771
12.94 180.907 0.0 -50.6133 -50.6133
12.95 174.427 0.0 -51.9132 -51.9132
12.96 163.03 0.0 -52.5878 -52.5878
12.97 147.032 0.0 -52.6922 -52.6922
12.98 126.893 0.0 -52.325 -52.325
12.99 103.201 0.0 -51.6164 -51.6164
13 76.6476 0.0 -50.7203 -50.7203
13.01 48.0036 0.0 -49.8011 -49.8011
13.02 18.088 0.0 -49.02 -49.02
13.03 -12.2625 0.0 -48.5229 -48.5229
13.04 -42.224 0.0 -48.4279 -48.4279
13.05 -71.0141 0.0 -48.8159 -48.8159
13.06 -97.9156 0.0 -49.7264 -49.7264
13.07 -122.297 0.0 -51.1531 -51.1531
13.08 -143.625 0.0 -53.0457 -53.0457
13.09 -161.475 0.0 -55.3187 -55.3187
13.1 -175.53 0.0 -57.8565 -57.8565
13.11 -185.582 0.0 -60.5233 -60.5233
13.12 -191.52 0.0 -63.1838 -63.1838
13.13 -193.329 0.0 -65.7029 -65.7029
13.14 -191.074 0.0 -67.9701 -67.9701
13.15 -184.893 0.0 -69.8993 -69.8993
13.16 -174.989 0.0 -71.4432 -71.4432
13.17 -161.625 0.0 -72.5902 -72.5902
13.18 -145.119 0.0 -73.3678 -73.3678
13.19 -125.845 0.0 -73.8388 -73.8388
13.2 -104.231 0.0 -74.0929 -74.0929
13.21 -80.7612 0.0 -74.2388 -74.2388
13.22 -55.9749 0.0 -74.3921 -74.3921
13.23 -30.4647 0.0 -74.6643 -74.6643
13.24 -4.86957 0.0 -75.1519 -75.1519
13.25 20.136 0.0 -75.927 -75.927
13.26 43.8582 0.0 -77.0298 -77.0298
13.27 65.6056 0.0 -78.4652 -78.4652
13.28 84.7145 0.0 -80.2007 -80.2007
13.29 100.579 0.0 -82.1696 -82.1696
13.3 112.682 0.0 -84.2757 -84.2757
13.31 120.624 0.0 -86.4013 -86.4013
13.32 124.153 0.0 -88.4166 -88.4166
13.33 123.184 0.0 -90.1908 -90.1908
13.34 117.812 0.0 -91.6021 -91.6021
13.35 108.322 0.0 -92.548 -92.548
13.36 95.1804 0.0 -92.9536 -92.9536
13.37 79.0191 0.0 -92.7776 -92.7776
13.38 60.6127 0.0 -92.016 -92.016
13.39 40.8432 0.0 -90.702 -90.702
13.4 20.661 0.0 -88.9049 -88.9049
13.41 1.04073 0.0 -86.7239 -86.7239
13.42 -17.0633 0.0 -84.2817 -84.2817
13.43 -32.7594 0.0 -81.7156 -81.7156
13.44 -45.257 0.0 -79.168 -79.168
13.45 -53.8972 0.0 -76.7758 -76.7758
13.46 -58.1756 0.0 -74.6604 -74.6604
13.47 -57.756 0.0 -72.923 -72.923
13.48 -52.4736 0.0 -71.6334 -71.6334
13.49 -42.3309 0.0 -70.8281 -70.8281
13.5 -27.4852 0.0 -70.5074 -70.5074
13.51 -8.23132 0.0 -70.6389 -70.6389
13.52 15.0196 0.0 -71.1562 -71.1562
13.53 41.7625 0.0 -71.9671 -71.9671
13.54 71.4205 0.0 -72.9594 -72.9594
13.55 103.365 0.0 -74.0092 -74.0092
13.56 136.931 0.0 -74.9897 -74.9897
13.57 171.434 0.0 -75.7797 -75.7797
13.58 206.178 0.0 -76.2712 -76.2712
13.59 240.464 0.0 -76.3784 -76.3784
13.6 273.598 0.0 -76.0394 -76.0394
13.61 304.897 0.0 -75.2204 -75.2204
13.62 333.698 0.0 -73.9181 -73.9181
13.63 359.368 0.0 -72.1587 -72.1587
13.64 381.317 0.0 -69.9894 -69.9894
13.65 399.019 0.0 -67.4813 -67.4813
13.66 412.026 0.0 -64.7151 -64.7151
13.67 419.992 0.0 -61.7796 -61.7796
13.68 422.692 0.0 -58.7623 -58.7623
13.69 420.046 0.0 -55.745 -55.745
13.7 412.127 0.0 -52.7948 -52.7948
13.71 399.174 0.0 -49.9621 -49.9621
13.72 381.594 0.0 -47.2818 -47.2818
13.73 359.95 0.0 -44.7661 -44.7661
13.74 334.949 0.0 -42.4127 -42.4127
13.75 307.41 0.0 -40.2064 -40.2064
13.76 278.237 0.0 -38.1226 -38.1226
13.77 248.369 0.0 -36.1352 -36.1352
13.78 218.747 0.0 -34.2177 -34.2177
13.79 190.259 0.0 -32.3549 -32.3549
13.8 163.705 0.0 -30.5414 -30.5414
13.81 139.757 0.0 -28.7864 -28.7864
13.82 118.928 0.0 -27.1143 -27.1143
13.83 101.554 0.0 -25.5622 -25.5622
13.84 87.7843 0.0 -24.178 -24.178
13.85 77.5815 0.0 -23.0146 -23.0146
13.86 70.7366 0.0 -22.125 -22.125
13.87 66.8878 0.0 -21.5549 -21.5549
13.88 65.5498 0.0 -21.3374 -21.3374
13.89 66.1465 0.0 -21.488 -21.488
13.9 68.0455 0.0 -22.0001 -22.0001
13.91 70.5925 0.0 -22.844 -22.844
13.92 73.1427 0.0 -23.9671 -23.9671
13.93 75.0873 0.0 -25.297 -25.297
13.94 75.8744 0.0 -26.7462 -26.7462
13.95 75.0233 0.0 -28.2183 -28.2183
13.96 72.133 0.0 -29.6156 -29.6156
13.97 66.8856 0.0 -30.8473 -30.8473
13.98 59.0447 0.0 -31.8358 -31.8358
13.99 48.4521 0.0 -32.5234 -32.5234
14 35.023 0.0 -32.8759 -32.8759
14.01 18.7418 0.0 -32.8849 -32.8849
14.02 -0.341394 0.0 -32.5668 -32.5668
14.03 -22.1119 0.0 -31.96 -31.96
14.04 -46.3896 0.0 -31.1195 -31.1195
14.05 -72.9267 0.0 -30.1103 -30.1103
14.06 -101.405 0.0 -29.0014 -29.0014
14.07 -131.431 0.0 -27.8565 -27.8565
14.08 -162.542 0.0 -26.7283 -26.7283
14.09 -194.198 0.0 -25.6551 -25.6551
14.1 -225.798 0.0 -24.6553 -24.6553
14.11 -256.685 0.0 -23.7301 -23.7301
14.12 -286.166 0.0 -22.8656 -22.8656
14.13 -313.533 0.0 -22.0332 -22.0332
14.14 -338.083 0.0 -21.2006 -21.2006
14.15 -359.154 0.0 -20.3383 -20.3383
14.16 -376.143 0.0 -19.4206 -19.4206
14.17 -388.543 0.0 -18.4413 -18.4413
14.18 -395.956 0.0 -17.4096 -17.4096
14.19 -398.122 0.0 -16.358 -16.358
14.2 -394.922 0.0 -15.3376 -15.3376
14.21 -386.391 0.0 -14.419 -14.419
14.22 -372.71 0.0 -13.6814 -13.6814
14.23 -354.199 0.0 -13.208 -13.208
14.24 -331.304 0.0 -13.0743 -13.0743
14.25 -304.572 0.0 -13.3405 -13.3405
14.26 -274.63 0.0 -14.0432 -14.0432
14.27 -242.161 0.0 -15.1851 -15.1851
14.28 -207.877 0.0 -16.7332 -16.7332
14.29 -172.497 0.0 -18.6173 -18.6173
14.3 -136.727 0.0 -20.7359 -20.7359
14.31 -101.245 0.0 -22.9568 -22.9568
14.32 -66.6871 0.0 -25.1316 -25.1316
14.33 -33.6389 0.0 -27.1063 -27.1063
14.34 -2.63163 0.0 -28.7332 -28.7332
14.35 25.8623 0.0 -29.8847 -29.8847
14.36 51.4308 0.0 -30.4654 -30.4654
14.37 73.7242 0.0 -30.4206 -30.4206
14.38 92.4576 0.0 -29.7423 -29.7423
14.39 107.415 0.0 -28.4709 -28.4709
14.4 118.452 0.0 -26.6924 -26.6924
14.41 125.507 0.0 -24.5311 -24.5311
14.42 128.601 0.0 -22.1411 -22.1411
14.43 127.848 0.0 -19.6899 -19.6899
14.44 123.456 0.0 -17.3455 -17.3455
14.45 115.732 0.0 -15.266 -15.266
14.46 105.073 0.0 -13.5809 -13.5809
14.47 91.9633 0.0 -12.383 -12.383
14.48 76.9582 0.0 -11.7234 -11.7234
14.49 60.6664 0.0 -11.6071 -11.6071
14.5 43.7271 0.0 -11.9963 -11.9963
14.51 26.7828 0.0 -12.8158 -12.8158
14.52 10.4506 0.0 -13.9623 -13.9623
14.53 -4.70585 0.0 -15.3168 -15.3168
14.54 -18.2041 0.0 -16.7577 -16.7577
14.55 -29.6657 0.0 -18.1729 -18.1729
14.56 -38.8336 0.0 -19.4718 -19.4718
14.57 -45.5837 0.0 -20.5932 -20.5932
14.58 -49.9273 0.0 -21.5105 -21.5105
14.59 -52.0068 0.0 -22.2329 -22.2329
14.6 -52.0837 0.0 -22.8015 -22.8015
14.61 -50.5192 0.0 -23.2834 -23.2834
14.62 -47.7509 0.0 -23.7614 -23.7614
14.63 -44.265 0.0 -24.323 -24.323
14.64 -40.5681 0.0 -25.0481 -25.0481
14.65 -37.1584 0.0 -25.9981 -25.9981
14.66 -34.5004 0.0 -27.2061 -27.2061
14.67 -33.0023 0.0 -28.6716 -28.6716
14.68 -32.9994 0.0 -30.3574 -30.3574
14.69 -34.7417 0.0 -32.1911 -32.1911
14.7 -38.3885 0.0 -34.0707 -34.0707
14.71 -44.007 0.0 -35.8729 -35.8729
14.72 -51.5757 0.0 -37.4648 -37.4648
14.73 -60.9918 0.0 -38.7156 -38.7156
14.74 -72.08 0.0 -39.51 -39.51
14.75 -84.6031 0.0 -39.7579 -39.7579
14.76 -98.273 0.0 -39.407 -39.407
14.77 -112.76 0.0 -38.4449 -38.4449
14.78 -127.703 0.0 -36.902 -36.902
14.79 -142.716 0.0 -34.8529 -34.8529
14.8 -157.397 0.0 -32.4052 -32.4052
14.81 -171.331 0.0 -29.6957 -29.6957
14.82 -184.102 0.0 -26.8793 -26.8793
14.83 -195.292 0.0 -24.1111 -24.1111
14.84 -204.496 0.0 -21.5395 -21.5395
14.85 -211.329 0.0 -19.2936 -19.2936
14.86 -215.436 0.0 -17.4733 -17.4733
14.87 -216.504 0.0 -16.1393 -16.1393
14.88 -214.279 0.0 -15.315 -15.315
14.89 -208.578 0.0 -14.9846 -14.9846
14.9 -199.303 0.0 -15.0938 -15.0938
14.91 -186.451 0.0 -15.5578 -15.5578
14.92 -170.125 0.0 -16.271 -16.271
14.93 -150.538 0.0 -17.1144 -17.1144
14.94 -128.012 0.0 -17.964 -17.964
14.95 -102.976 0.0 -18.7045 -18.7045
14.96 -75.9537 0.0 -19.2355 -19.2355
14.97 -47.5452 0.0 -19.4749 -19.4749
14.98 -18.4105 0.0 -19.3677 -19.3677
14.99 10.7571 0.0 -18.8859 -18.8859
15 39.257 0.0 -18.0282 -18.0282
15.01 66.4093 0.0 -16.8182 -16.8182
15.02 91.5813 0.0 -15.3004 -15.3004
15.03 114.213 0.0 -13.5357 -13.5357
15.04 133.837 0.0 -11.5959 -11.5959
15.05 150.097 0.0 -9.55913 -9.55913
15.06 162.757 0.0 -7.50326 -7.50326
15.07 171.707 0.0 -5.50374 -5.50374
15.08 176.959 0.0 -3.62786 -3.62786
15.09 178.643 0.0 -1.93242 -1.93242
15.1 176.994 0.0 -0.46499 -0.46499
15.11 172.331 0.0 0.740998 0.740998
15.12 165.042 0.0 1.66736 1.66736
15.13 155.558 0.0 2.308 2.308
15.14 144.335 0.0 2.67032 2.67032
15.15 131.827 0.0 2.77565 2.77565
15.16 118.473 0.0 2.65683 2.65683
15.17 104.674 0.0 2.35678 2.35678
15.18 90.7846 0.0 1.9298 1.9298
15.19 77.1016 0.0 1.43541 1.43541
15.2 63.861 0.0 0.937517 0.937517
15.21 51.2366 0.0 0.499906 0.499906
15.22 39.3433 0.0 0.182994 0.182994
15.23 28.2432 0.0 0.0388818 0.0388818
15.24 17.954 0.0 0.107099 0.107099
15.25 8.45862 0.0 0.410762 0.410762
15.26 -0.284519 0.0 0.953533 0.953533
15.27 -8.33184 0.0 1.71756 1.71756
15.28 -15.7461 0.0 2.66318 2.66318
15.29 -22.5896 0.0 3.73059 3.73059
15.3 -28.9198 0.0 4.84313 4.84313
15.31 -34.7871 0.0 5.91233 5.91233
15.32 -40.2347 0.0 6.84513 6.84513
15.33 -45.3006 0.0 7.55155 7.55155
15.34 -50.0208 0.0 7.95281 7.95281
15.35 -54.4327 0.0 7.98919 7.98919
15.36 -58.5787 0.0 7.62751 7.62751
15.37 -62.5084 0.0 6.86577 6.86577
15.38 -66.2786 0.0 5.73575 5.73575
15.39 -69.9518 0.0 4.30342 4.30342
15.4 -73.5906 0.0 2.66556 2.66556
15.41 -77.2503 0.0 0.94339 0.94339
15.42 -80.9691 0.0 -0.725254 -0.725254
15.43 -84.7563 0.0 -2.19687 -2.19687
15.44 -88.5799 0.0 -3.33352 -3.33352
15.45 -92.3552 0.0 -4.0149 -4.0149
15.46 -95.9359 0.0 -4.14813 -4.14813
15.47 -99.1081 0.0 -3.67792 -3.67792
15.48 -101.59 0.0 -2.58979 -2.58979
15.49 -103.039 0.0 -0.917496 -0.917496
15.5 -103.059 0.0 1.26346 1.26346
15.51 -101.229 0.0 3.83844 3.83844
15.52 -97.1181 0.0 6.6586 6.6586
15.53 -90.3229 0.0 9.55657 9.55657
15.54 -80.4987 0.0 12.3561 12.3561
15.55 -67.3944 0.0 14.8863 14.8863
15.56 -50.8853 0.0 16.9946 16.9946
15.57 -31.0013 0.0 18.5584 18.5584
15.58 -7.94741 0.0 19.4938 19.4938
15.59 17.8849 0.0 19.7623 19.7623
15.6 45.9184 0.0 19.373 19.373
15.61 75.4038 0.0 18.3805 18.3805
15.62 105.445 0.0 16.8811 16.8811
15.63 135.037 0.0 15.0045 15.0045
15.64 163.116 0.0 12.9027 12.9027
15.65 188.611 0.0 10.7371 10.7371
15.66 210.504 0.0 8.67074 8.67074
15.67 227.891 0.0 6.84986 6.84986
15.68 240.032 0.0 5.3985 5.3985
15.69 246.401 0.0 4.40885 4.40885
15.7 246.716 0.0 3.93643 3.93643
15.71 240.959 0.0 3.99682 3.99682
15.72 229.383 0.0 4.56772 4.56772
15.73 212.493 0.0 5.5936 5.5936
15.74 191.02 0.0 6.98744 6.98744
15.75 165.873 0.0 8.64422 8.64422
15.76 138.091 0.0 10.4474 10.4474
15.77 108.776 0.0 12.2741 12.2741
15.78 79.0329 0.0 14.0105 14.0105
15.79 49.9052 0.0 15.554 15.554
15.8 22.3208 0.0 16.8209 16.8209
15.81 -2.95391 0.0 17.7504 17.7504
15.82 -25.346 0.0 18.3057 18.3057
15.83 -44.4938 0.0 18.475 18.475
15.84 -60.249 0.0 18.2688 18.2688
15.85 -72.6644 0.0 17.718 17.718
15.86 -81.9683 0.0 16.8691 16.8691
15.87 -88.5294 0.0 15.7801 15.7801
15.88 -92.8144 0.0 14.5162 14.5162
15.89 -95.3433 0.0 13.1448 13.1448
15.9 -96.6453 0.0 11.7328 11.7328
15.91 -97.2191 0.0 10.3426 10.3426
15.92 -97.5006 0.0 9.03081 9.03081
15.93 -97.8398 0.0 7.84635 7.84635
15.94 -98.4873 0.0 6.83031 6.83031
15.95 -99.5922 0.0 6.01546 6.01546
15.96 -101.208 0.0 5.4274 5.4274
15.97 -103.305 0.0 5.08487 5.08487
15.98 -105.792 0.0 5.00042 5.00042
15.99 -108.536 0.0 5.18289 5.18289
16 -111.38 0.0 5.63584 5.63584
16.01 -114.165 0.0 6.35919 6.35919
16.02 -116.743 0.0 7.34963 7.34963
16.03 -118.98 0.0 8.60217 8.60217
16.04 -120.764 0.0 10.1065 10.1065
16.05 -121.996 0.0 11.8524 11.8524
16.06 -122.582 0.0 13.8231 13.8231
16.07 -122.421 0.0 15.9999 15.9999
16.08 -121.393 0.0 18.3621 18.3621
16.09 -119.348 0.0 20.8822 20.8822
16.1 -116.098 0.0 23.5323 23.5323
16.11 -111.414 0.0 26.2804 26.2804
16.12 -105.031 0.0 29.0918 29.0918
16.13 -96.6583 0.0 31.9307 31.9307
16.14 -85.9972 0.0 34.76 34.76
16.15 -72.7635 0.0 37.5434 37.5434
16.16 -56.7133 0.0 40.2457 40.2457
16.17 -37.6712 0.0 42.8348 42.8348
16.18 -15.5561 0.0 45.2828 45.2828
16.19 9.59562 0.0 47.5672 47.5672
16.2 37.6135 0.0 49.6724 49.6724
16.21 68.1843 0.0 51.5897 51.5897
16.22 100.852 0.0 53.3204 53.3204
16.23 135.026 0.0 54.8699 54.8699
16.24 170.005 0.0 56.2554 56.2554
16.25 204.997 0.0 57.4971 57.4971
16.26 239.16 0.0 58.623 58.623
16.27 271.636 0.0 59.6606 59.6606
16.28 301.594 0.0 60.6403 60.6403
16.29 328.264 0.0 61.5896 61.5896
16.3 350.981 0.0 62.5311 62.5311
16.31 369.207 0.0 63.4795 63.4795
16.32 382.558 0.0 64.445 64.445
16.33 390.82 0.0 65.4241 65.4241
16.34 393.95 0.0 66.4068 66.4068
16.35 392.077 0.0 67.374 67.374
16.36 385.487 0.0 68.3024 68.3024
16.37 374.606 0.0 69.1635 69.1635
16.38 359.976 0.0 69.9298 69.9298
16.39 342.229 0.0 70.5766 70.5766
16.4 322.055 0.0 71.0868 71.0868
16.41 300.172 0.0 71.4527 71.4527
16.42 277.301 0.0 71.6785 71.6785
16.43 254.134 0.0 71.7812 71.7812
16.44 231.318 0.0 71.7902 71.7902
16.45 209.431 0.0 71.7434 71.7434
16.46 188.968 0.0 71.6875 71.6875
16.47 170.33 0.0 71.6709 71.6709
16.48 153.819 0.0 71.7385 71.7385
16.49 139.628 0.0 71.9278 71.9278
16.5 127.849 0.0 72.2643 72.2643
16.51 118.466 0.0 72.7568 72.7568
16.52 111.368 0.0 73.3939 73.3939
16.53 106.351 0.0 74.1461 74.1461
16.54 103.13 0.0 74.9623 74.9623
16.55 101.35 0.0 75.7797 75.7797
16.56 100.604 0.0 76.5231 76.5231
16.57 100.443 0.0 77.1159 77.1159
16.58 100.4 0.0 77.4856 77.4856
16.59 100.008 0.0 77.5724 77.5724
16.6 98.8164 0.0 77.3336 77.3336
16.61 96.4182 0.0 76.7558 76.7558
16.62 92.4641 0.0 75.8499 75.8499
16.63 86.6818 0.0 74.6612 74.6612
16.64 78.8904 0.0 73.2606 73.2606
16.65 69.0112 0.0 71.7458 71.7458
16.66 57.0729 0.0 70.2281 70.2281
16.67 43.213 0.0 68.83 68.83
16.68 27.6721 0.0 67.6713 67.6713
16.69 10.7839 0.0 66.8593 66.8593
16.7 -7.04148 0.0 66.479 66.479
16.71 -25.337 0.0 66.5851 66.5851
16.72 -43.6031 0.0 67.1963 67.1963
16.73 -61.3332 0.0 68.2921 68.2921
16.74 -78.0406 0.0 69.8141 69.8141
16.75 -93.2838 0.0 71.6696 71.6696
16.76 -106.69 0.0 73.7387 73.7387
16.77 -117.976 0.0 75.8844 75.8844
16.78 -126.961 0.0 77.9631 77.9631
16.79 -133.576 0.0 79.8366 79.8366
16.8 -137.869 0.0 81.3836 81.3836
16.81 -139.998 0.0 82.5089 82.5089
16.82 -140.227 0.0 83.1508 83.1508
16.83 -138.907 0.0 83.285 83.285
16.84 -136.457 0.0 82.9257 82.9257
16.85 -133.347 0.0 82.122 82.122
16.86 -130.068 0.0 80.9524 80.9524
16.87 -127.112 0.0 79.5161 79.5161
16.88 -124.945 0.0 77.9231 77.9231
16.89 -123.988 0.0 76.283 76.283
16.9 -124.597 0.0 74.6957 74.6957
16.91 -127.048 0.0 73.242 73.242
16.92 -131.527 0.0 71.978 71.978
16.93 -138.124 0.0 70.9315 70.9315
16.94 -146.834 0.0 70.1023 70.1023
16.95 -157.556 0.0 69.4645 69.4645
16.96 -170.103 0.0 68.9736 68.9736
16.97 -184.209 0.0 68.5733 68.5733
16.98 -199.548 0.0 68.2045 68.2045
16.99 -215.738 0.0 67.8141 67.8141
17 -232.367 0.0 67.3636 67.3636
17.01 -248.998 0.0 66.8347 66.8347
17.02 -265.191 0.0 66.2328 66.2328
17.03 -280.512 0.0 65.5844 65.5844
17.04 -294.549 0.0 64.9414 64.9414
17.05 -306.92 0.0 64.3685 64.3685
17.06 -317.281 0.0 63.9376 63.9376
17.07 -325.339 0.0 63.7226 63.7226
17.08 -330.854 0.0 63.7821 63.7821
17.09 -333.647 0.0 64.1574 64.1574
17.1 -333.603 0.0 64.863 64.863
17.11 -330.672 0.0 65.8802 65.8802
17.12 -324.876 0.0 67.1576 67.1576
17.13 -316.304 0.0 68.6165 68.6165
17.14 -305.116 0.0 70.1466 70.1466
17.15 -291.538 0.0 71.6263 71.6263
17.16 -275.861 0.0 72.922 72.922
17.17 -258.429 0.0 73.907 73.907
17.18 -239.635 0.0 74.4707 74.4707
17.19 -219.906 0.0 74.5267 74.5267
17.2 -199.69 0.0 74.0232 74.0232
17.21 -179.44 0.0 72.9491 72.9491
17.22 -159.593 0.0 71.3326 71.3326
17.23 -140.55 0.0 69.2412 69.2412
17.24 -122.661 0.0 66.7755 66.7755
17.25 -106.199 0.0 64.0609 64.0609
17.26 -91.3488 0.0 61.2366 61.2366
17.27 -78.1931 0.0 58.4441 58.4441
17.28 -66.7032 0.0 55.8146 55.8146
17.29 -56.7388 0.0 53.4594 53.4594
17.3 -48.0521 0.0 51.4603 51.4603
17.31 -40.2999 0.0 49.8647 49.8647
17.32 -33.0619 0.0 48.6822 48.6822
17.33 -25.8659 0.0 47.8866 47.8866
17.34 -18.217 0.0 47.4196 47.4196
17.35 -9.63067 0.0 47.1978 47.1978
17.36 0.333267 0.0 47.1215 47.1215
17.37 12.0375 0.0 47.0849 47.0849
17.38 25.7377 0.0 46.9847 46.9847
17.39 41.5577 0.0 46.7299 46.7299
17.4 59.4738 0.0 46.2472 46.2472
17.41 79.3057 0.0 45.4863 45.4863
17.42 100.72 0.0 44.4215 44.4215
17.43 123.239 0.0 43.0478 43.0478
17.44 146.268 0.0 41.3821 41.3821
17.45 169.118 0.0 39.4519 39.4519
17.46 191.047 0.0 37.2936 37.2936
17.47 211.299 0.0 34.9443 34.9443
17.48 229.142 0.0 32.4329 32.4329
17.49 243.915 0.0 29.7814 29.7814
17.5 255.057 0.0 26.9974 26.9974
17.51 262.141 0.0 24.0786 24.0786
17.52 264.896 0.0 21.0107 21.0107
17.53 263.214 0.0 17.7747 17.7747
17.54 257.156 0.0 14.3522 14.3522
17.55 246.939 0.0 10.7336 10.7336
17.56 232.925 0.0 6.92307 6.92307
17.57 215.588 0.0 2.94309 2.94309
17.58 195.489 0.0 -1.16035 -1.16035
17.59 173.242 0.0 -5.31507 -5.31507
17.6 149.477 0.0 -9.42768 -9.42768
17.61 124.809 0.0 -13.3882 -13.3882
17.62 99.8127 0.0 -17.077 -17.077
17.63 74.9945 0.0 -20.3732 -20.3732
17.64 50.7796 0.0 -23.1686 -23.1686
17.65 27.5019 0.0 -25.3772 -25.3772
17.66 5.40211 0.0 -26.9463 -26.9463
17.67 -15.368 0.0 -27.8641 -27.8641
17.68 -34.7358 0.0 -28.1653 -28.1653
17.69 -52.6941 0.0 -27.9321 -27.9321
17.7 -69.2852 0.0 -27.291 -27.291
17.71 -84.5836 0.0 -26.4064 -26.4064
17.72 -98.6798 0.0 -25.4682 -25.4682
17.73 -111.665 0.0 -24.6792 -24.6792
17.74 -123.618 0.0 -24.2375 -24.2375
17.75 -134.599 0.0 -24.3248 -24.3248
17.76 -144.638 0.0 -25.0812 -25.0812
17.77 -153.734 0.0 -26.6015 -26.6015
17.78 -161.853 0.0 -28.9221 -28.9221
17.79 -168.93 0.0 -32.0129 -32.0129
17.8 -174.869 0.0 -35.782 -35.782
17.81 -179.546 0.0 -40.0786 -40.0786
17.82 -182.815 0.0 -44.7029 -44.7029
17.83 -184.508 0.0 -49.4209 -49.4209
17.84 -184.443 0.0 -53.9846 -53.9846
17.85 -182.43 0.0 -58.1483 -58.1483
17.86 -178.273 0.0 -61.6883 -61.6883
17.87 -171.784 0.0 -64.4214 -64.4214
17.88 -162.789 0.0 -66.223 -66.223
17.89 -151.143 0.0 -67.03 -67.03
17.9 -136.741 0.0 -66.8512 -66.8512
17.91 -119.533 0.0 -65.769 -65.769
17.92 -99.5416 0.0 -63.9254 -63.9254
17.93 -76.8738 0.0 -61.5172 -61.5172
17.94 -51.7346 0.0 -58.7784 -58.7784
17.95 -24.4357 0.0 -55.9618 -55.9618
17.96 4.60034 0.0 -53.3187 -53.3187
17.97 34.8424 0.0 -51.0808 -51.0808
17.98 65.66 0.0 -49.4417 -49.4417
17.99 96.3392 0.0 -48.5432 -48.5432
18 126.107 0.0 -48.4661 -48.4661
18.01 154.162 0.0 -49.2254 -49.2254
18.02 179.709 0.0 -50.7694 -50.7694
18.03 201.998 0.0 -52.9922 -52.9922
18.04 220.363 0.0 -55.7354 -55.7354
18.05 234.262 0.0 -58.8089 -58.8089
18.06 243.306 0.0 -62.0068 -62.0068
18.07 247.289 0.0 -65.1198 -65.1198
18.08 246.202 0.0 -67.9584 -67.9584
18.09 240.242 0.0 -70.3608 -70.3608
18.1 229.8 0.0 -72.21 -72.21
18.11 215.449 0.0 -73.4344 -73.4344
18.12 197.913 0.0 -74.0146 -74.0146
18.13 178.024 0.0 -73.9827 -73.9827
18.14 156.682 0.0 -73.412 -73.412
18.15 134.802 0.0 -72.4095 -72.4095
18.16 113.26 0.0 -71.106 -71.106
18.17 92.8467 0.0 -69.6426 -69.6426
18.18 74.2238 0.0 -68.1578 -68.1578
18.19 57.886 0.0 -66.7773 -66.7773
18.2 44.1381 0.0 -65.6046 -65.6046
18.21 33.0821 0.0 -64.7151 -64.7151
18.22 24.618 0.0 -64.1535 -64.1535
18.23 18.4573 0.0 -63.9342 -63.9342
18.24 14.1484 0.0 -64.0442 -64.0442
18.25 11.1124 0.0 -64.4496 -64.4496
18.26 8.68586 0.0 -65.1014 -65.1014
18.27 6.16935 0.0 -65.9438 -65.9438
18.28 2.87678 0.0 -66.9216 -66.9216
18.29 -1.8164 0.0 -67.9846 -67.9846
18.3 -8.42968 0.0 -69.0932 -69.0932
18.31 -17.3411 0.0 -70.2193 -70.2193
18.32 -28.76 0.0 -71.346 -71.346
18.33 -42.7109 0.0 -72.4641 -72.4641
18.34 -59.0281 0.0 -73.5699 -73.5699
18.35 -77.3629 0.0 -74.6581 -74.6581
18.36 -97.2005 0.0 -75.7165 -75.7165
18.37 -117.887 0.0 -76.7211 -76.7211
18.38 -138.664 0.0 -77.6378 -77.6378
18.39 -158.71 0.0 -78.4137 -78.4137
18.4 -177.183 0.0 -78.9823 -78.9823
18.41 -193.262 0.0 -79.2708 -79.2708
18.42 -206.196 0.0 -79.1993 -79.1993
18.43 -215.334 0.0 -78.6932 -78.6932
18.44 -220.164 0.0 -77.6894 -77.6894
18.45 -220.333 0.0 -76.1471 -76.1471
18.46 -215.667 0.0 -74.0543 -74.0543
18.47 -206.174 0.0 -71.43 -71.43
18.48 -192.045 0.0 -68.3326 -68.3326
18.49 -173.642 0.0 -64.8545 -64.8545
18.5 -151.478 0.0 -61.1206 -61.1206
18.51 -126.193 0.0 -57.2802 -57.2802
18.52 -98.5215 0.0 -53.4965 -53.4965
18.53 -69.2624 0.0 -49.9356 -49.9356
18.54 -39.2405 0.0 -46.7519 -46.7519
18.55 -9.2737 0.0 -44.0773 -44.0773
18.56 19.8601 0.0 -42.0084 -42.0084
18.57 47.4512 0.0 -40.5984 -40.5984
18.58 72.8822 0.0 -39.8524 -39.8524
18.59 95.6457 0.0 -39.7256 -39.7256
18.6 115.356 0.0 -40.1272 -40.1272
18.61 131.755 0.0 -40.9271 -40.9271
18.62 144.71 0.0 -41.9663 -41.9663
18.63 154.211 0.0 -43.0712 -43.0712
18.64 160.357 0.0 -44.0647 -44.0647
18.65 163.342 0.0 -44.7862 -44.7862
18.66 163.444 0.0 -45.0985 -45.0985
18.67 161 0.0 -44.9028 -44.9028
18.68 156.396 0.0 -44.1429 -44.1429
18.69 150.046 0.0 -42.8114 -42.8114
18.7 142.38 0.0 -40.9452 -40.9452
18.71 133.827 0.0 -38.6243 -38.6243
18.72 124.806 0.0 -35.9608 -35.9608
18.73 115.717 0.0 -33.0888 -33.0888
18.74 106.929 0.0 -30.1526 -30.1526
18.75 98.7776 0.0 -27.2945 -27.2945
18.76 91.5541 0.0 -24.6432 -24.6432
18.77 85.5029 0.0 -22.305 -22.305
18.78 80.8146 0.0 -20.3576 -20.3576
18.79 77.6213 0.0 -18.8468 -18.8468
18.8 75.9925 0.0 -17.7872 -17.7872
18.81 75.932 0.0 -17.1656 -17.1656
18.82 77.3768 0.0 -16.9464 -16.9464
18.83 80.1983 0.0 -17.0792 -17.0792
18.84 84.2072 0.0 -17.507 -17.507
18.85 89.161 0.0 -18.173 -18.173
18.86 94.7761 0.0 -19.027 -19.027
18.87 100.743 0.0 -20.0292 -20.0292
18.88 106.745 0.0 -21.1518 -21.1518
18.89 112.48 0.0 -22.3783 -22.3783
18.9 117.681 0.0 -23.6992 -23.6992
18.91 122.137 0.0 -25.1085 -25.1085
18.92 125.712 0.0 -26.5973 -26.5973
18.93 128.36 0.0 -28.1482 -28.1482
18.94 130.131 0.0 -29.7326 -29.7326
18.95 131.171 0.0 -31.3043 -31.3043
18.96 131.717 0.0 -32.8043 -32.8043
18.97 132.078 0.0 -34.1603 -34.1603
18.98 132.613 0.0 -35.2939 -35.2939
18.99 133.697 0.0 -36.1279 -36.1279
19 135.688 0.0 -36.5951 -36.5951
19.01 138.889 0.0 -36.6491 -36.6491
19.02 143.513 0.0 -36.2706 -36.2706
19.03 149.648 0.0 -35.4779 -35.4779
19.04 157.237 0.0 -34.3257 -34.3257
19.05 166.06 0.0 -32.9098 -32.9098
19.06 175.734 0.0 -31.3587 -31.3587
19.07 185.723 0.0 -29.8256 -29.8256
19.08 195.362 0.0 -28.479 -28.479
19.09 203.896 0.0 -27.484 -27.484
19.1 210.523 0.0 -26.9883 -26.9883
19.11 214.452 0.0 -27.1056 -27.1056
19.12 214.954 0.0 -27.9031 -27.9031
19.13 211.426 0.0 -29.3886 -29.3886
19.14 203.432 0.0 -31.5074 -31.5074
19.15 190.753 0.0 -34.1445 -34.1445
19.16 173.408 0.0 -37.1276 -37.1276
19.17 151.665 0.0 -40.2397 -40.2397
19.18 126.04 0.0 -43.2403 -43.2403
19.19 97.2732 0.0 -45.8815 -45.8815
19.2 66.2844 0.0 -47.9336 -47.9336
19.21 34.1258 0.0 -49.2051 -49.2051
19.22 1.91691 0.0 -49.5635 -49.5635
19.23 -29.2237 0.0 -48.9497 -48.9497
19.24 -58.2473 0.0 -47.3867 -47.3867
19.25 -84.2393 0.0 -44.9797 -44.9797
19.26 -106.474 0.0 -41.9146 -41.9146
19.27 -124.459 0.0 -38.4387 -38.4387
19.28 -137.958 0.0 -34.8452 -34.8452
19.29 -147 0.0 -31.4494 -31.4494
19.3 -151.869 0.0 -28.5567 -28.5567
19.31 -153.079 0.0 -26.4429 -26.4429
19.32 -151.326 0.0 -25.3236 -25.3236
19.33 -147.439 0.0 -25.3391 -25.3391
19.34 -142.313 0.0 -26.5387 -26.5387
19.35 -136.85 0.0 -28.8725 -28.8725
19.36 -131.892 0.0 -32.1976 -32.1976
19.37 -128.166 0.0 -36.2914 -36.2914
19.38 -126.234 0.0 -40.8615 -40.8615
19.39 -126.467 0.0 -45.5776 -45.5776
19.4 -129.018 0.0 -50.0942 -50.0942
19.41 -133.82 0.0 -54.0805 -54.0805
19.42 -140.603 0.0 -57.2458 -57.2458
19.43 -148.912 0.0 -59.3662 -59.3662
19.44 -158.146 0.0 -60.2977 -60.2977
19.45 -167.605 0.0 -59.9856 -59.9856
19.46 -176.536 0.0 -58.4724 -58.4724
19.47 -184.182 0.0 -55.8839 -55.8839
19.48 -189.837 0.0 -52.4209 -52.4209
19.49 -192.884 0.0 -48.3404 -48.3404
19.5 -192.832 0.0 -43.9284 -43.9284
19.51 -189.345 0.0 -39.4788 -39.4788
19.52 -182.26 0.0 -35.2649 -35.2649
19.53 -171.59 0.0 -31.523 -31.523
19.54 -157.523 0.0 -28.4319 -28.4319
19.55 -140.41 0.0 -26.1028 -26.1028
19.56 -120.744 0.0 -24.5722 -24.5722
19.57 -99.132 0.0 -23.81 -23.81
19.58 -76.267 0.0 -23.7224 -23.7224
19.59 -52.8921 0.0 -24.1687 -24.1687
19.6 -29.7665 0.0 -24.9767 -24.9767
19.61 -7.63178 0.0 -25.9622 -25.9622
19.62 12.8199 0.0 -26.9472 -26.9472
19.63 30.974 0.0 -27.7762 -27.7762
19.64 46.3179 0.0 -28.3295 -28.3295
19.65 58.4588 0.0 -28.5313 -28.5313
19.66 67.1372 0.0 -28.3536 -28.3536
19.67 72.2325 0.0 -27.8133 -27.8133
19.68 73.7635 0.0 -26.9675 -26.9675
19.69 71.8813 0.0 -25.9021 -25.9021
19.7 66.8568 0.0 -24.7208 -24.7208
19.71 59.0618 0.0 -23.5308 -23.5308
19.72 48.9464 0.0 -22.4317 -22.4317
19.73 37.0115 0.0 -21.5034 -21.5034
19.74 23.7803 0.0 -20.7995 -20.7995
19.75 9.76816 0.0 -20.3422 -20.3422
19.76 -4.54553 0.0 -20.1223 -20.1223
19.77 -18.7429 0.0 -20.1026 -20.1026
19.78 -32.4883 0.0 -20.2237 -20.2237
19.79 -45.5429 0.0 -20.4125 -20.4125
19.8 -57.772 0.0 -20.5918 -20.5918
19.81 -69.144 0.0 -20.6897 -20.6897
19.82 -79.7215 0.0 -20.6475 -20.6475
19.83 -89.645 0.0 -20.428 -20.428
19.84 -99.1102 0.0 -20.0148 -20.0148
19.85 -108.34 0.0 -19.4171 -19.4171
19.86 -117.554 0.0 -18.6666 -18.6666
19.87 -126.941 0.0 -17.814 -17.814
19.88 -136.627 0.0 -16.917 -16.917
19.89 -146.657 0.0 -16.0405 -16.0405
19.9 -156.976 0.0 -15.2434 -15.2434
19.91 -167.426 0.0 -14.5744 -14.5744
19.92 -177.746 0.0 -14.0675 -14.0675
19.93 -187.589 0.0 -13.7345 -13.7345
19.94 -196.54 0.0 -13.5691 -13.5691
19.95 -204.147 0.0 -13.5455 -13.5455
19.96 -209.957 0.0 -13.6244 -13.6244
19.97 -213.554 0.0 -13.7581 -13.7581
19.98 -214.596 0.0 -13.8934 -13.8934
19.99 -212.846 0.0 -13.9833 -13.9833
20 -208.202 0.0 -13.9911 -13.9911
